trialN,stimuli,trialStartTime,trialStartTime_UNIX,stimulus1,stimulus2,stimulus1Bid,stimulus2Bid,delta,selected,rt,rt_UNIX,rt_perfnow,receivedResponse,rsp,trialEndTime,trialDuration,trialEndTime_UNIX,trialDuration_UNIX,exp,subjectId,date
0,"[{'imgObject': {}, 'id': 'burger', 'src': '/static/foodstim60/burger.jpg', 'key': 'u', 'origWidth': 409, 'origHeight': 409, 'width': 409, 'height': 409, 'widthPercent': 0.45, 'rescaleHeight': False, 'trialN': 0, 'loaded': True, 'loadedTime': 4938.300000011921, 'positionName': 'LEFT', 'positionCoords': [819.8, 515.5], 'bid': 3.75}, {'imgObject': {}, 'id': 'steak', 'src': '/static/foodstim60/steak.jpg', 'key': 'i', 'origWidth': 410, 'origHeight': 410, 'width': 410, 'height': 410, 'widthPercent': 0.45, 'rescaleHeight': False, 'trialN': 0, 'loaded': True, 'loadedTime': 5051, 'positionName': 'RIGHT', 'positionCoords': [1331.2, 515], 'bid': 3.88}]",5824.199999988079,1669837416588,burger,steak,3.75,3.88,0.1299999999999999,burger,898.1999999880791,899,898.6000000238419,True,u,7232.899999976158,1408.699999988079,1669837417997,1409,HRV,HRV_0261,2022-11-30 19:48:14
1,"[{'imgObject': {}, 'id': 'raisin bran w milk', 'src': '/static/foodstim60/raisin bran w milk.jpg', 'key': 'u', 'origWidth': 411, 'origHeight': 411, 'width': 411, 'height': 411, 'widthPercent': 0.45, 'rescaleHeight': False, 'trialN': 1, 'loaded': True, 'loadedTime': 5060.300000011921, 'positionName': 'LEFT', 'positionCoords': [817.8, 514.5], 'bid': 4.8500000000000005}, {'imgObject': {}, 'id': 'strawberries', 'src': '/static/foodstim60/strawberries.jpg', 'key': 'i', 'origWidth': 410, 'origHeight': 410, 'width': 410, 'height': 410, 'widthPercent': 0.45, 'rescaleHeight': False, 'trialN': 1, 'loaded': True, 'loadedTime': 5106.600000023842, 'positionName': 'RIGHT', 'positionCoords': [1331.2, 515], 'bid': 5.95}]",7233.199999988079,1669837417997,raisin bran w milk,strawberries,4.8500000000000005,5.95,1.0999999999999996,strawberries,997.1999999880791,998,997.6000000238419,True,i,8741.5,1508.300000011921,1669837419506,1509,HRV,HRV_0261,2022-11-30 19:48:14
2,"[{'imgObject': {}, 'id': 'ice cream sundae 002', 'src': '/static/foodstim60/ice cream sundae 002.jpg', 'key': 'u', 'origWidth': 409, 'origHeight': 409, 'width': 409, 'height': 409, 'widthPercent': 0.45, 'rescaleHeight': False, 'trialN': 2, 'loaded': True, 'loadedTime': 5116.899999976158, 'positionName': 'LEFT', 'positionCoords': [819.8, 515.5], 'bid': 3.33}, {'imgObject': {}, 'id': 'turkeysandwich', 'src': '/static/foodstim60/turkeysandwich.jpg', 'key': 'i', 'origWidth': 409, 'origHeight': 409, 'width': 409, 'height': 409, 'widthPercent': 0.45, 'rescaleHeight': False, 'trialN': 2, 'loaded': True, 'loadedTime': 5176.399999976158, 'positionName': 'RIGHT', 'positionCoords': [1331.2, 515.5], 'bid': 7.47}]",8741.600000023842,1669837419506,ice cream sundae 002,turkeysandwich,3.33,7.47,4.14,turkeysandwich,801.7999999523163,802,802.0,True,i,10047.600000023842,1306.0,1669837420812,1306,HRV,HRV_0261,2022-11-30 19:48:14
3,"[{'imgObject': {}, 'id': 'mashed potato', 'src': '/static/foodstim60/mashed potato.jpg', 'key': 'u', 'origWidth': 409, 'origHeight': 409, 'width': 409, 'height': 409, 'widthPercent': 0.45, 'rescaleHeight': False, 'trialN': 3, 'loaded': True, 'loadedTime': 5206.100000023842, 'positionName': 'LEFT', 'positionCoords': [819.8, 515.5], 'bid': 2.44}, {'imgObject': {}, 'id': 'orange slices', 'src': '/static/foodstim60/orange slices.jpg', 'key': 'i', 'origWidth': 409, 'origHeight': 410, 'width': 409, 'height': 410, 'widthPercent': 0.45, 'rescaleHeight': False, 'trialN': 3, 'loaded': True, 'loadedTime': 5241.300000011921, 'positionName': 'RIGHT', 'positionCoords': [1331.2, 515], 'bid': 6.8100000000000005}]",10047.899999976158,1669837420812,mashed potato,orange slices,2.44,6.8100000000000005,4.370000000000001,orange slices,844.7000000476837,845,845.0,True,i,11401.800000011921,1353.9000000357628,1669837422166,1354,HRV,HRV_0261,2022-11-30 19:48:14
4,"[{'imgObject': {}, 'id': 'fried eggs', 'src': '/static/foodstim60/fried eggs.jpg', 'key': 'u', 'origWidth': 410, 'origHeight': 410, 'width': 410, 'height': 410, 'widthPercent': 0.45, 'rescaleHeight': False, 'trialN': 4, 'loaded': True, 'loadedTime': 5252.899999976158, 'positionName': 'LEFT', 'positionCoords': [818.8, 515], 'bid': 5.29}, {'imgObject': {}, 'id': 'seaweed', 'src': '/static/foodstim60/seaweed.jpg', 'key': 'i', 'origWidth': 410, 'origHeight': 410, 'width': 410, 'height': 410, 'widthPercent': 0.45, 'rescaleHeight': False, 'trialN': 4, 'loaded': True, 'loadedTime': 5280.399999976158, 'positionName': 'RIGHT', 'positionCoords': [1331.2, 515], 'bid': 0.39}]",11402.0,1669837422166,fried eggs,seaweed,5.29,0.39,-4.9,fried eggs,764.3999999761581,765,764.6000000238419,True,u,12675.699999988079,1273.699999988079,1669837423440,1274,HRV,HRV_0261,2022-11-30 19:48:14
5,"[{'imgObject': {}, 'id': 'mashed potato', 'src': '/static/foodstim60/mashed potato.jpg', 'key': 'u', 'origWidth': 409, 'origHeight': 409, 'width': 409, 'height': 409, 'widthPercent': 0.45, 'rescaleHeight': False, 'trialN': 5, 'loaded': True, 'loadedTime': 5196.5, 'positionName': 'LEFT', 'positionCoords': [819.8, 515.5], 'bid': 2.44}, {'imgObject': {}, 'id': 'rigatoni', 'src': '/static/foodstim60/rigatoni.jpg', 'key': 'i', 'origWidth': 411, 'origHeight': 411, 'width': 411, 'height': 411, 'widthPercent': 0.45, 'rescaleHeight': False, 'trialN': 5, 'loaded': True, 'loadedTime': 5331.5, 'positionName': 'RIGHT', 'positionCoords': [1331.2, 514.5], 'bid': 2.82}]",12676.0,1669837423440,mashed potato,rigatoni,2.44,2.82,0.3799999999999999,rigatoni,1155.0,1156,1155.1000000238419,True,i,14335.600000023842,1659.6000000238419,1669837425100,1660,HRV,HRV_0261,2022-11-30 19:48:14
6,"[{'imgObject': {}, 'id': 'raisin bran w milk', 'src': '/static/foodstim60/raisin bran w milk.jpg', 'key': 'u', 'origWidth': 411, 'origHeight': 411, 'width': 411, 'height': 411, 'widthPercent': 0.45, 'rescaleHeight': False, 'trialN': 6, 'loaded': True, 'loadedTime': 5081.100000023842, 'positionName': 'LEFT', 'positionCoords': [817.8, 514.5], 'bid': 4.8500000000000005}, {'imgObject': {}, 'id': 'fried eggs', 'src': '/static/foodstim60/fried eggs.jpg', 'key': 'i', 'origWidth': 410, 'origHeight': 410, 'width': 410, 'height': 410, 'widthPercent': 0.45, 'rescaleHeight': False, 'trialN': 6, 'loaded': True, 'loadedTime': 5262.399999976158, 'positionName': 'RIGHT', 'positionCoords': [1331.2, 515], 'bid': 5.29}]",14335.800000011921,1669837425100,raisin bran w milk,fried eggs,4.8500000000000005,5.29,0.4399999999999995,fried eggs,927.6999999880791,928,927.8999999761581,True,i,15779.600000023842,1443.800000011921,1669837426544,1444,HRV,HRV_0261,2022-11-30 19:48:14
7,"[{'imgObject': {}, 'id': 'cherry tomato', 'src': '/static/foodstim60/cherry tomato.jpg', 'key': 'u', 'origWidth': 410, 'origHeight': 410, 'width': 410, 'height': 410, 'widthPercent': 0.45, 'rescaleHeight': False, 'trialN': 7, 'loaded': True, 'loadedTime': 4976.5, 'positionName': 'LEFT', 'positionCoords': [818.8, 515], 'bid': 5.67}, {'imgObject': {}, 'id': 'corn cob', 'src': '/static/foodstim60/corn cob.jpg', 'key': 'i', 'origWidth': 411, 'origHeight': 411, 'width': 411, 'height': 411, 'widthPercent': 0.45, 'rescaleHeight': False, 'trialN': 7, 'loaded': True, 'loadedTime': 4978.199999988079, 'positionName': 'RIGHT', 'positionCoords': [1331.2, 514.5], 'bid': 5.98}]",15779.899999976158,1669837426544,cherry tomato,corn cob,5.67,5.98,0.3100000000000005,cherry tomato,901.6000000238419,902,901.7000000476837,True,u,17186.0,1406.1000000238419,1669837427950,1406,HRV,HRV_0261,2022-11-30 19:48:14
8,"[{'imgObject': {}, 'id': 'cherry tomato', 'src': '/static/foodstim60/cherry tomato.jpg', 'key': 'u', 'origWidth': 410, 'origHeight': 410, 'width': 410, 'height': 410, 'widthPercent': 0.45, 'rescaleHeight': False, 'trialN': 8, 'loaded': True, 'loadedTime': 4977.699999988079, 'positionName': 'LEFT', 'positionCoords': [818.8, 515], 'bid': 5.67}, {'imgObject': {}, 'id': 'bagel and cc', 'src': '/static/foodstim60/bagel and cc.jpg', 'key': 'i', 'origWidth': 410, 'origHeight': 410, 'width': 410, 'height': 410, 'widthPercent': 0.45, 'rescaleHeight': False, 'trialN': 8, 'loaded': True, 'loadedTime': 4992.5, 'positionName': 'RIGHT', 'positionCoords': [1331.2, 515], 'bid': 7.5}]",17186.19999998808,1669837427951,cherry tomato,bagel and cc,5.67,7.5,1.83,bagel and cc,689.1999999880791,689,689.5,True,i,18396.69999998808,1210.5,1669837429161,1210,HRV,HRV_0261,2022-11-30 19:48:14
9,"[{'imgObject': {}, 'id': 'sweetpotato', 'src': '/static/foodstim60/sweetpotato.jpg', 'key': 'u', 'origWidth': 410, 'origHeight': 410, 'width': 410, 'height': 410, 'widthPercent': 0.45, 'rescaleHeight': False, 'trialN': 9, 'loaded': True, 'loadedTime': 5033.199999988079, 'positionName': 'LEFT', 'positionCoords': [818.8, 515], 'bid': 3.72}, {'imgObject': {}, 'id': 'luckycharms', 'src': '/static/foodstim60/luckycharms.jpg', 'key': 'i', 'origWidth': 410, 'origHeight': 409, 'width': 410, 'height': 409, 'widthPercent': 0.45, 'rescaleHeight': False, 'trialN': 9, 'loaded': True, 'loadedTime': 5156.899999976158, 'positionName': 'RIGHT', 'positionCoords': [1331.2, 515.5], 'bid': 3.83}]",18396.899999976158,1669837429161,sweetpotato,luckycharms,3.72,3.83,0.10999999999999988,sweetpotato,1105.2000000476837,1106,1105.5,True,u,20018.0,1621.1000000238419,1669837430782,1621,HRV,HRV_0261,2022-11-30 19:48:14
10,"[{'imgObject': {}, 'id': 'mashed potato', 'src': '/static/foodstim60/mashed potato.jpg', 'key': 'u', 'origWidth': 409, 'origHeight': 409, 'width': 409, 'height': 409, 'widthPercent': 0.45, 'rescaleHeight': False, 'trialN': 10, 'loaded': True, 'loadedTime': 5196.100000023842, 'positionName': 'LEFT', 'positionCoords': [819.8, 515.5], 'bid': 2.44}, {'imgObject': {}, 'id': 'eggsalad', 'src': '/static/foodstim60/eggsalad.jpg', 'key': 'i', 'origWidth': 410, 'origHeight': 409, 'width': 410, 'height': 409, 'widthPercent': 0.45, 'rescaleHeight': False, 'trialN': 10, 'loaded': True, 'loadedTime': 5270.800000011921, 'positionName': 'RIGHT', 'positionCoords': [1331.2, 515.5], 'bid': 0.72}]",20018.19999998808,1669837430783,mashed potato,eggsalad,2.44,0.72,-1.72,mashed potato,1064.300000011921,1064,1064.6000000238419,True,u,21593.30000001192,1575.1000000238419,1669837432358,1575,HRV,HRV_0261,2022-11-30 19:48:14
11,"[{'imgObject': {}, 'id': 'granola w milk', 'src': '/static/foodstim60/granola w milk.jpg', 'key': 'u', 'origWidth': 410, 'origHeight': 410, 'width': 410, 'height': 410, 'widthPercent': 0.45, 'rescaleHeight': False, 'trialN': 11, 'loaded': True, 'loadedTime': 5304.800000011921, 'positionName': 'LEFT', 'positionCoords': [818.8, 515], 'bid': 4.98}, {'imgObject': {}, 'id': 'eggs', 'src': '/static/foodstim60/eggs.jpg', 'key': 'i', 'origWidth': 409, 'origHeight': 409, 'width': 409, 'height': 409, 'widthPercent': 0.45, 'rescaleHeight': False, 'trialN': 11, 'loaded': True, 'loadedTime': 5348.899999976158, 'positionName': 'RIGHT', 'positionCoords': [1331.2, 515.5], 'bid': 2.76}]",21593.399999976158,1669837432358,granola w milk,eggs,4.98,2.76,-2.2200000000000006,granola w milk,782.1000000238419,782,782.4000000357628,True,u,22883.600000023842,1290.2000000476837,1669837433648,1290,HRV,HRV_0261,2022-11-30 19:48:14
12,"[{'imgObject': {}, 'id': 'hashbrowns', 'src': '/static/foodstim60/hashbrowns.jpg', 'key': 'u', 'origWidth': 411, 'origHeight': 410, 'width': 411, 'height': 410, 'widthPercent': 0.45, 'rescaleHeight': False, 'trialN': 12, 'loaded': True, 'loadedTime': 5349.100000023842, 'positionName': 'LEFT', 'positionCoords': [817.8, 515], 'bid': 0.59}, {'imgObject': {}, 'id': 'eggsalad', 'src': '/static/foodstim60/eggsalad.jpg', 'key': 'i', 'origWidth': 410, 'origHeight': 409, 'width': 410, 'height': 409, 'widthPercent': 0.45, 'rescaleHeight': False, 'trialN': 12, 'loaded': True, 'loadedTime': 5262.699999988079, 'positionName': 'RIGHT', 'positionCoords': [1331.2, 515.5], 'bid': 0.72}]",22883.69999998808,1669837433648,hashbrowns,eggsalad,0.59,0.72,0.13,eggsalad,759.9000000357628,760,760.1000000238419,True,i,24156.5,1272.800000011921,1669837434921,1273,HRV,HRV_0261,2022-11-30 19:48:14
13,"[{'imgObject': {}, 'id': 'olives', 'src': '/static/foodstim60/olives.jpg', 'key': 'u', 'origWidth': 410, 'origHeight': 410, 'width': 410, 'height': 410, 'widthPercent': 0.45, 'rescaleHeight': False, 'trialN': 13, 'loaded': True, 'loadedTime': 5378.399999976158, 'positionName': 'LEFT', 'positionCoords': [818.8, 515], 'bid': 2.42}, {'imgObject': {}, 'id': 'hashbrowns', 'src': '/static/foodstim60/hashbrowns.jpg', 'key': 'i', 'origWidth': 411, 'origHeight': 410, 'width': 411, 'height': 410, 'widthPercent': 0.45, 'rescaleHeight': False, 'trialN': 13, 'loaded': True, 'loadedTime': 5359.399999976158, 'positionName': 'RIGHT', 'positionCoords': [1331.2, 515], 'bid': 0.59}]",24156.600000023842,1669837434921,olives,hashbrowns,2.42,0.59,-1.83,olives,1817.7999999523163,1818,1818.0,True,u,26488.899999976158,2332.2999999523163,1669837437253,2332,HRV,HRV_0261,2022-11-30 19:48:14
14,"[{'imgObject': {}, 'id': 'kiwi', 'src': '/static/foodstim60/kiwi.jpg', 'key': 'u', 'origWidth': 410, 'origHeight': 410, 'width': 410, 'height': 410, 'widthPercent': 0.45, 'rescaleHeight': False, 'trialN': 14, 'loaded': True, 'loadedTime': 5388.199999988079, 'positionName': 'LEFT', 'positionCoords': [818.8, 515], 'bid': 8.6}, {'imgObject': {}, 'id': 'apple slices', 'src': '/static/foodstim60/apple slices.jpg', 'key': 'i', 'origWidth': 409, 'origHeight': 410, 'width': 409, 'height': 410, 'widthPercent': 0.45, 'rescaleHeight': False, 'trialN': 14, 'loaded': True, 'loadedTime': 5429.699999988079, 'positionName': 'RIGHT', 'positionCoords': [1331.2, 515], 'bid': 6.5}]",26489.19999998808,1669837437253,kiwi,apple slices,8.6,6.5,-2.0999999999999996,kiwi,834.1000000238419,835,834.4000000357628,True,u,27841.600000023842,1352.4000000357628,1669837438606,1353,HRV,HRV_0261,2022-11-30 19:48:14
15,"[{'imgObject': {}, 'id': 'mango', 'src': '/static/foodstim60/mango.jpg', 'key': 'u', 'origWidth': 411, 'origHeight': 411, 'width': 411, 'height': 411, 'widthPercent': 0.45, 'rescaleHeight': False, 'trialN': 15, 'loaded': True, 'loadedTime': 5445.600000023842, 'positionName': 'LEFT', 'positionCoords': [817.8, 514.5], 'bid': 1.34}, {'imgObject': {}, 'id': 'ice cream sundae 002', 'src': '/static/foodstim60/ice cream sundae 002.jpg', 'key': 'i', 'origWidth': 409, 'origHeight': 409, 'width': 409, 'height': 409, 'widthPercent': 0.45, 'rescaleHeight': False, 'trialN': 15, 'loaded': True, 'loadedTime': 5136.699999988079, 'positionName': 'RIGHT', 'positionCoords': [1331.2, 515.5], 'bid': 3.33}]",27841.69999998808,1669837438606,mango,ice cream sundae 002,1.34,3.33,1.99,ice cream sundae 002,840.6999999880791,841,841.0,True,i,29204.100000023842,1362.4000000357628,1669837439968,1362,HRV,HRV_0261,2022-11-30 19:48:14
16,"[{'imgObject': {}, 'id': 'corn cob', 'src': '/static/foodstim60/corn cob.jpg', 'key': 'u', 'origWidth': 411, 'origHeight': 411, 'width': 411, 'height': 411, 'widthPercent': 0.45, 'rescaleHeight': False, 'trialN': 16, 'loaded': True, 'loadedTime': 4979.399999976158, 'positionName': 'LEFT', 'positionCoords': [817.8, 514.5], 'bid': 5.98}, {'imgObject': {}, 'id': 'tacos', 'src': '/static/foodstim60/tacos.jpg', 'key': 'i', 'origWidth': 411, 'origHeight': 411, 'width': 411, 'height': 411, 'widthPercent': 0.45, 'rescaleHeight': False, 'trialN': 16, 'loaded': True, 'loadedTime': 5485.5, 'positionName': 'RIGHT', 'positionCoords': [1331.2, 514.5], 'bid': 3.94}]",29204.19999998808,1669837439969,corn cob,tacos,5.98,3.94,-2.0400000000000005,corn cob,1388.300000011921,1388,1388.5,True,u,31102.399999976158,1898.199999988079,1669837441867,1898,HRV,HRV_0261,2022-11-30 19:48:14
17,"[{'imgObject': {}, 'id': 'strawberries', 'src': '/static/foodstim60/strawberries.jpg', 'key': 'u', 'origWidth': 410, 'origHeight': 410, 'width': 410, 'height': 410, 'widthPercent': 0.45, 'rescaleHeight': False, 'trialN': 17, 'loaded': True, 'loadedTime': 5097.300000011921, 'positionName': 'LEFT', 'positionCoords': [818.8, 515], 'bid': 5.95}, {'imgObject': {}, 'id': 'burrito', 'src': '/static/foodstim60/burrito.jpg', 'key': 'i', 'origWidth': 410, 'origHeight': 410, 'width': 410, 'height': 410, 'widthPercent': 0.45, 'rescaleHeight': False, 'trialN': 17, 'loaded': True, 'loadedTime': 5495, 'positionName': 'RIGHT', 'positionCoords': [1331.2, 515], 'bid': 3.92}]",31102.5,1669837441867,strawberries,burrito,5.95,3.92,-2.0300000000000002,strawberries,887.1999999880791,887,887.6000000238419,True,u,32499.30000001192,1396.800000011921,1669837443264,1397,HRV,HRV_0261,2022-11-30 19:48:14
18,"[{'imgObject': {}, 'id': 'Tribe humus pita', 'src': '/static/foodstim60/Tribe humus pita.jpg', 'key': 'u', 'origWidth': 411, 'origHeight': 411, 'width': 411, 'height': 411, 'widthPercent': 0.45, 'rescaleHeight': False, 'trialN': 18, 'loaded': True, 'loadedTime': 5516.5, 'positionName': 'LEFT', 'positionCoords': [817.8, 514.5], 'bid': 3.12}, {'imgObject': {}, 'id': 'ice cream sundae 002', 'src': '/static/foodstim60/ice cream sundae 002.jpg', 'key': 'i', 'origWidth': 409, 'origHeight': 409, 'width': 409, 'height': 409, 'widthPercent': 0.45, 'rescaleHeight': False, 'trialN': 18, 'loaded': True, 'loadedTime': 5126.399999976158, 'positionName': 'RIGHT', 'positionCoords': [1331.2, 515.5], 'bid': 3.33}]",32499.5,1669837443264,Tribe humus pita,ice cream sundae 002,3.12,3.33,0.20999999999999996,Tribe humus pita,1367.8999999761581,1368,1368.199999988079,True,u,34378.0,1878.5,1669837445142,1878,HRV,HRV_0261,2022-11-30 19:48:14
19,"[{'imgObject': {}, 'id': 'omelette', 'src': '/static/foodstim60/omelette.jpg', 'key': 'u', 'origWidth': 410, 'origHeight': 409, 'width': 410, 'height': 409, 'widthPercent': 0.45, 'rescaleHeight': False, 'trialN': 19, 'loaded': True, 'loadedTime': 5528.399999976158, 'positionName': 'LEFT', 'positionCoords': [818.8, 515.5], 'bid': 1.55}, {'imgObject': {}, 'id': 'steak', 'src': '/static/foodstim60/steak.jpg', 'key': 'i', 'origWidth': 410, 'origHeight': 410, 'width': 410, 'height': 410, 'widthPercent': 0.45, 'rescaleHeight': False, 'trialN': 19, 'loaded': True, 'loadedTime': 5051, 'positionName': 'RIGHT', 'positionCoords': [1331.2, 515], 'bid': 3.88}]",34378.10000002384,1669837445142,omelette,steak,1.55,3.88,2.33,steak,1327.5,1328,1327.699999988079,True,i,36215.0,1836.8999999761581,1669837446979,1837,HRV,HRV_0261,2022-11-30 19:48:14
20,"[{'imgObject': {}, 'id': 'kiwi', 'src': '/static/foodstim60/kiwi.jpg', 'key': 'u', 'origWidth': 410, 'origHeight': 410, 'width': 410, 'height': 410, 'widthPercent': 0.45, 'rescaleHeight': False, 'trialN': 20, 'loaded': True, 'loadedTime': 5403.300000011921, 'positionName': 'LEFT', 'positionCoords': [818.8, 515], 'bid': 8.6}, {'imgObject': {}, 'id': 'mac & cheese', 'src': '/static/foodstim60/mac & cheese.jpg', 'key': 'i', 'origWidth': 410, 'origHeight': 410, 'width': 410, 'height': 410, 'widthPercent': 0.45, 'rescaleHeight': False, 'trialN': 20, 'loaded': True, 'loadedTime': 5548, 'positionName': 'RIGHT', 'positionCoords': [1331.2, 515], 'bid': 9.46}]",36215.10000002384,1669837446979,kiwi,mac & cheese,8.6,9.46,0.8600000000000012,mac & cheese,1109.2999999523163,1110,1109.5,True,i,37841.39999997616,1626.2999999523163,1669837448606,1627,HRV,HRV_0261,2022-11-30 19:48:14
21,"[{'imgObject': {}, 'id': 'mac & cheese', 'src': '/static/foodstim60/mac & cheese.jpg', 'key': 'u', 'origWidth': 410, 'origHeight': 410, 'width': 410, 'height': 410, 'widthPercent': 0.45, 'rescaleHeight': False, 'trialN': 21, 'loaded': True, 'loadedTime': 5548.300000011921, 'positionName': 'LEFT', 'positionCoords': [818.8, 515], 'bid': 9.46}, {'imgObject': {}, 'id': 'orange slices', 'src': '/static/foodstim60/orange slices.jpg', 'key': 'i', 'origWidth': 409, 'origHeight': 410, 'width': 409, 'height': 410, 'widthPercent': 0.45, 'rescaleHeight': False, 'trialN': 21, 'loaded': True, 'loadedTime': 5224.800000011921, 'positionName': 'RIGHT', 'positionCoords': [1331.2, 515], 'bid': 6.8100000000000005}]",37841.60000002384,1669837448606,mac & cheese,orange slices,9.46,6.8100000000000005,-2.6500000000000004,mac & cheese,680.7999999523163,681,681.0999999642372,True,u,39035.69999998808,1194.0999999642372,1669837449800,1194,HRV,HRV_0261,2022-11-30 19:48:14
22,"[{'imgObject': {}, 'id': 'froot loops w milk', 'src': '/static/foodstim60/froot loops w milk.jpg', 'key': 'u', 'origWidth': 410, 'origHeight': 410, 'width': 410, 'height': 410, 'widthPercent': 0.45, 'rescaleHeight': False, 'trialN': 22, 'loaded': True, 'loadedTime': 5575.800000011921, 'positionName': 'LEFT', 'positionCoords': [818.8, 515], 'bid': 6.0200000000000005}, {'imgObject': {}, 'id': 'edamame', 'src': '/static/foodstim60/edamame.jpg', 'key': 'i', 'origWidth': 409, 'origHeight': 410, 'width': 409, 'height': 410, 'widthPercent': 0.45, 'rescaleHeight': False, 'trialN': 22, 'loaded': True, 'loadedTime': 5584.5, 'positionName': 'RIGHT', 'positionCoords': [1331.2, 515], 'bid': 1.25}]",39035.80000001192,1669837449800,froot loops w milk,edamame,6.0200000000000005,1.25,-4.7700000000000005,froot loops w milk,1044.800000011921,1045,1045.0,True,u,40590.30000001192,1554.5,1669837451355,1555,HRV,HRV_0261,2022-11-30 19:48:14
23,"[{'imgObject': {}, 'id': 'fruitsalad', 'src': '/static/foodstim60/fruitsalad.jpg', 'key': 'u', 'origWidth': 410, 'origHeight': 410, 'width': 410, 'height': 410, 'widthPercent': 0.45, 'rescaleHeight': False, 'trialN': 23, 'loaded': True, 'loadedTime': 5592.300000011921, 'positionName': 'LEFT', 'positionCoords': [818.8, 515], 'bid': 7.21}, {'imgObject': {}, 'id': 'roastedpotatoes', 'src': '/static/foodstim60/roastedpotatoes.jpg', 'key': 'i', 'origWidth': 409, 'origHeight': 410, 'width': 409, 'height': 410, 'widthPercent': 0.45, 'rescaleHeight': False, 'trialN': 23, 'loaded': True, 'loadedTime': 5629.100000023842, 'positionName': 'RIGHT', 'positionCoords': [1331.2, 515], 'bid': 9.67}]",40590.39999997616,1669837451355,fruitsalad,roastedpotatoes,7.21,9.67,2.46,roastedpotatoes,989.6000000238419,990,989.8000000119209,True,i,42099.5,1509.1000000238419,1669837452864,1509,HRV,HRV_0261,2022-11-30 19:48:14
24,"[{'imgObject': {}, 'id': 'pear', 'src': '/static/foodstim60/pear.jpg', 'key': 'u', 'origWidth': 411, 'origHeight': 410, 'width': 411, 'height': 410, 'widthPercent': 0.45, 'rescaleHeight': False, 'trialN': 24, 'loaded': True, 'loadedTime': 5630.199999988079, 'positionName': 'LEFT', 'positionCoords': [817.8, 515], 'bid': 3.5}, {'imgObject': {}, 'id': 'Tribe humus pita', 'src': '/static/foodstim60/Tribe humus pita.jpg', 'key': 'i', 'origWidth': 411, 'origHeight': 411, 'width': 411, 'height': 411, 'widthPercent': 0.45, 'rescaleHeight': False, 'trialN': 24, 'loaded': True, 'loadedTime': 5496.5, 'positionName': 'RIGHT', 'positionCoords': [1331.2, 514.5], 'bid': 3.12}]",42099.60000002384,1669837452864,pear,Tribe humus pita,3.5,3.12,-0.3799999999999999,pear,943.1999999880791,944,943.5999999642372,True,u,43560.0,1460.3999999761581,1669837454324,1460,HRV,HRV_0261,2022-11-30 19:48:14
25,"[{'imgObject': {}, 'id': 'raspberries', 'src': '/static/foodstim60/raspberries.jpg', 'key': 'u', 'origWidth': 411, 'origHeight': 411, 'width': 411, 'height': 411, 'widthPercent': 0.45, 'rescaleHeight': False, 'trialN': 25, 'loaded': True, 'loadedTime': 5630.600000023842, 'positionName': 'LEFT', 'positionCoords': [817.8, 514.5], 'bid': 6.38}, {'imgObject': {}, 'id': 'chicken nuggets2', 'src': '/static/foodstim60/chicken nuggets2.jpg', 'key': 'i', 'origWidth': 410, 'origHeight': 409, 'width': 410, 'height': 409, 'widthPercent': 0.45, 'rescaleHeight': False, 'trialN': 25, 'loaded': True, 'loadedTime': 5658.100000023842, 'positionName': 'RIGHT', 'positionCoords': [1331.2, 515.5], 'bid': 7.59}]",43560.19999998808,1669837454325,raspberries,chicken nuggets2,6.38,7.59,1.21,chicken nuggets2,850.1999999880791,850,850.4000000357628,True,i,44923.5,1363.300000011921,1669837455688,1363,HRV,HRV_0261,2022-11-30 19:48:14
26,"[{'imgObject': {}, 'id': 'sweetpotato', 'src': '/static/foodstim60/sweetpotato.jpg', 'key': 'u', 'origWidth': 410, 'origHeight': 410, 'width': 410, 'height': 410, 'widthPercent': 0.45, 'rescaleHeight': False, 'trialN': 26, 'loaded': True, 'loadedTime': 5022.800000011921, 'positionName': 'LEFT', 'positionCoords': [818.8, 515], 'bid': 3.72}, {'imgObject': {}, 'id': 'burger', 'src': '/static/foodstim60/burger.jpg', 'key': 'i', 'origWidth': 409, 'origHeight': 409, 'width': 409, 'height': 409, 'widthPercent': 0.45, 'rescaleHeight': False, 'trialN': 26, 'loaded': True, 'loadedTime': 4970.699999988079, 'positionName': 'RIGHT', 'positionCoords': [1331.2, 515.5], 'bid': 3.75}]",44923.60000002384,1669837455688,sweetpotato,burger,3.72,3.75,0.029999999999999805,burger,1277.0,1277,1277.0999999642372,True,i,46708.30000001192,1784.699999988079,1669837457473,1785,HRV,HRV_0261,2022-11-30 19:48:14
27,"[{'imgObject': {}, 'id': 'kiwi', 'src': '/static/foodstim60/kiwi.jpg', 'key': 'u', 'origWidth': 410, 'origHeight': 410, 'width': 410, 'height': 410, 'widthPercent': 0.45, 'rescaleHeight': False, 'trialN': 27, 'loaded': True, 'loadedTime': 5397, 'positionName': 'LEFT', 'positionCoords': [818.8, 515], 'bid': 8.6}, {'imgObject': {}, 'id': 'grilled chicken strips', 'src': '/static/foodstim60/grilled chicken strips.jpg', 'key': 'i', 'origWidth': 410, 'origHeight': 411, 'width': 410, 'height': 411, 'widthPercent': 0.45, 'rescaleHeight': False, 'trialN': 27, 'loaded': True, 'loadedTime': 5666.600000023842, 'positionName': 'RIGHT', 'positionCoords': [1331.2, 514.5], 'bid': 8.65}]",46708.60000002384,1669837457473,kiwi,grilled chicken strips,8.6,8.65,0.05000000000000071,kiwi,1574.7999999523163,1575,1575.199999988079,True,u,48794.60000002384,2086.0,1669837459559,2086,HRV,HRV_0261,2022-11-30 19:48:14
28,"[{'imgObject': {}, 'id': 'apple slices', 'src': '/static/foodstim60/apple slices.jpg', 'key': 'u', 'origWidth': 409, 'origHeight': 410, 'width': 409, 'height': 410, 'widthPercent': 0.45, 'rescaleHeight': False, 'trialN': 28, 'loaded': True, 'loadedTime': 5429.600000023842, 'positionName': 'LEFT', 'positionCoords': [819.8, 515], 'bid': 6.5}, {'imgObject': {}, 'id': 'turkeysandwich', 'src': '/static/foodstim60/turkeysandwich.jpg', 'key': 'i', 'origWidth': 409, 'origHeight': 409, 'width': 409, 'height': 409, 'widthPercent': 0.45, 'rescaleHeight': False, 'trialN': 28, 'loaded': True, 'loadedTime': 5166.199999988079, 'positionName': 'RIGHT', 'positionCoords': [1331.2, 515.5], 'bid': 7.47}]",48794.69999998808,1669837459559,apple slices,turkeysandwich,6.5,7.47,0.9699999999999998,turkeysandwich,882.3000000119209,883,882.6000000238419,True,i,50183.69999998808,1389.0,1669837460948,1389,HRV,HRV_0261,2022-11-30 19:48:14
29,"[{'imgObject': {}, 'id': 'olives', 'src': '/static/foodstim60/olives.jpg', 'key': 'u', 'origWidth': 410, 'origHeight': 410, 'width': 410, 'height': 410, 'widthPercent': 0.45, 'rescaleHeight': False, 'trialN': 29, 'loaded': True, 'loadedTime': 5366.800000011921, 'positionName': 'LEFT', 'positionCoords': [818.8, 515], 'bid': 2.42}, {'imgObject': {}, 'id': 'mashed potato', 'src': '/static/foodstim60/mashed potato.jpg', 'key': 'i', 'origWidth': 409, 'origHeight': 409, 'width': 409, 'height': 409, 'widthPercent': 0.45, 'rescaleHeight': False, 'trialN': 29, 'loaded': True, 'loadedTime': 5187.5, 'positionName': 'RIGHT', 'positionCoords': [1331.2, 515.5], 'bid': 2.44}]",50183.80000001192,1669837460948,olives,mashed potato,2.42,2.44,0.020000000000000018,mashed potato,1168.199999988079,1169,1168.3999999761581,True,i,51864.89999997616,1681.0999999642372,1669837462629,1681,HRV,HRV_0261,2022-11-30 19:48:14
30,"[{'imgObject': {}, 'id': 'rigatoni and sauce', 'src': '/static/foodstim60/rigatoni and sauce.jpg', 'key': 'u', 'origWidth': 410, 'origHeight': 411, 'width': 410, 'height': 411, 'widthPercent': 0.45, 'rescaleHeight': False, 'trialN': 30, 'loaded': True, 'loadedTime': 5675.199999988079, 'positionName': 'LEFT', 'positionCoords': [818.8, 514.5], 'bid': 3.5700000000000003}, {'imgObject': {}, 'id': 'salad w chicken', 'src': '/static/foodstim60/salad w chicken.jpg', 'key': 'i', 'origWidth': 411, 'origHeight': 411, 'width': 411, 'height': 411, 'widthPercent': 0.45, 'rescaleHeight': False, 'trialN': 30, 'loaded': True, 'loadedTime': 5689.899999976158, 'positionName': 'RIGHT', 'positionCoords': [1331.2, 514.5], 'bid': 7.5}]",51865.0,1669837462629,rigatoni and sauce,salad w chicken,3.5700000000000003,7.5,3.9299999999999997,salad w chicken,877.6000000238419,878,877.8000000119209,True,i,53261.30000001192,1396.300000011921,1669837464026,1397,HRV,HRV_0261,2022-11-30 19:48:14
31,"[{'imgObject': {}, 'id': 'tacos', 'src': '/static/foodstim60/tacos.jpg', 'key': 'u', 'origWidth': 411, 'origHeight': 411, 'width': 411, 'height': 411, 'widthPercent': 0.45, 'rescaleHeight': False, 'trialN': 31, 'loaded': True, 'loadedTime': 5463.5, 'positionName': 'LEFT', 'positionCoords': [817.8, 514.5], 'bid': 3.94}, {'imgObject': {}, 'id': 'lox', 'src': '/static/foodstim60/lox.jpg', 'key': 'i', 'origWidth': 410, 'origHeight': 411, 'width': 410, 'height': 411, 'widthPercent': 0.45, 'rescaleHeight': False, 'trialN': 31, 'loaded': True, 'loadedTime': 5707.199999988079, 'positionName': 'RIGHT', 'positionCoords': [1331.2, 514.5], 'bid': 2.14}]",53261.39999997616,1669837464026,tacos,lox,3.94,2.14,-1.7999999999999998,tacos,897.5,898,898.0,True,u,54676.60000002384,1415.2000000476837,1669837465441,1415,HRV,HRV_0261,2022-11-30 19:48:14
32,"[{'imgObject': {}, 'id': 'corn cob', 'src': '/static/foodstim60/corn cob.jpg', 'key': 'u', 'origWidth': 411, 'origHeight': 411, 'width': 411, 'height': 411, 'widthPercent': 0.45, 'rescaleHeight': False, 'trialN': 32, 'loaded': True, 'loadedTime': 4979.199999988079, 'positionName': 'LEFT', 'positionCoords': [817.8, 514.5], 'bid': 5.98}, {'imgObject': {}, 'id': 'cherries', 'src': '/static/foodstim60/cherries.jpg', 'key': 'i', 'origWidth': 410, 'origHeight': 411, 'width': 410, 'height': 411, 'widthPercent': 0.45, 'rescaleHeight': False, 'trialN': 32, 'loaded': True, 'loadedTime': 5707.399999976158, 'positionName': 'RIGHT', 'positionCoords': [1331.2, 514.5], 'bid': 1.1}]",54676.80000001192,1669837465441,corn cob,cherries,5.98,1.1,-4.880000000000001,corn cob,821.5999999642372,822,821.8999999761581,True,u,56013.89999997616,1337.0999999642372,1669837466778,1337,HRV,HRV_0261,2022-11-30 19:48:14
33,"[{'imgObject': {}, 'id': 'chickenfingers', 'src': '/static/foodstim60/chickenfingers.jpg', 'key': 'u', 'origWidth': 410, 'origHeight': 410, 'width': 410, 'height': 410, 'widthPercent': 0.45, 'rescaleHeight': False, 'trialN': 33, 'loaded': True, 'loadedTime': 5729.699999988079, 'positionName': 'LEFT', 'positionCoords': [818.8, 515], 'bid': 7.95}, {'imgObject': {}, 'id': 'fruitsalad', 'src': '/static/foodstim60/fruitsalad.jpg', 'key': 'i', 'origWidth': 410, 'origHeight': 410, 'width': 410, 'height': 410, 'widthPercent': 0.45, 'rescaleHeight': False, 'trialN': 33, 'loaded': True, 'loadedTime': 5585.5, 'positionName': 'RIGHT', 'positionCoords': [1331.2, 515], 'bid': 7.21}]",56014.0,1669837466778,chickenfingers,fruitsalad,7.95,7.21,-0.7400000000000002,chickenfingers,907.5,908,907.6999999880791,True,u,57430.39999997616,1416.3999999761581,1669837468195,1417,HRV,HRV_0261,2022-11-30 19:48:14
34,"[{'imgObject': {}, 'id': 'veggieswithdip', 'src': '/static/foodstim60/veggieswithdip.jpg', 'key': 'u', 'origWidth': 409, 'origHeight': 409, 'width': 409, 'height': 409, 'widthPercent': 0.45, 'rescaleHeight': False, 'trialN': 34, 'loaded': True, 'loadedTime': 5738.199999988079, 'positionName': 'LEFT', 'positionCoords': [819.8, 515.5], 'bid': 8.05}, {'imgObject': {}, 'id': 'raspberries', 'src': '/static/foodstim60/raspberries.jpg', 'key': 'i', 'origWidth': 411, 'origHeight': 411, 'width': 411, 'height': 411, 'widthPercent': 0.45, 'rescaleHeight': False, 'trialN': 34, 'loaded': True, 'loadedTime': 5639.600000023842, 'positionName': 'RIGHT', 'positionCoords': [1331.2, 514.5], 'bid': 6.38}]",57430.5,1669837468195,veggieswithdip,raspberries,8.05,6.38,-1.6700000000000008,raspberries,1122.1000000238419,1122,1122.5,True,i,59063.30000001192,1632.800000011921,1669837469828,1633,HRV,HRV_0261,2022-11-30 19:48:14
35,"[{'imgObject': {}, 'id': 'Grapes', 'src': '/static/foodstim60/Grapes.jpg', 'key': 'u', 'origWidth': 411, 'origHeight': 411, 'width': 411, 'height': 411, 'widthPercent': 0.45, 'rescaleHeight': False, 'trialN': 35, 'loaded': True, 'loadedTime': 5746.899999976158, 'positionName': 'LEFT', 'positionCoords': [817.8, 514.5], 'bid': 4.73}, {'imgObject': {}, 'id': 'grilled chicken strips', 'src': '/static/foodstim60/grilled chicken strips.jpg', 'key': 'i', 'origWidth': 410, 'origHeight': 411, 'width': 410, 'height': 411, 'widthPercent': 0.45, 'rescaleHeight': False, 'trialN': 35, 'loaded': True, 'loadedTime': 5666.899999976158, 'positionName': 'RIGHT', 'positionCoords': [1331.2, 514.5], 'bid': 8.65}]",59063.39999997616,1669837469828,Grapes,grilled chicken strips,4.73,8.65,3.92,grilled chicken strips,826.0,826,826.2000000476837,True,i,60397.60000002384,1334.2000000476837,1669837471162,1334,HRV,HRV_0261,2022-11-30 19:48:14
36,"[{'imgObject': {}, 'id': 'salad w chicken', 'src': '/static/foodstim60/salad w chicken.jpg', 'key': 'u', 'origWidth': 411, 'origHeight': 411, 'width': 411, 'height': 411, 'widthPercent': 0.45, 'rescaleHeight': False, 'trialN': 36, 'loaded': True, 'loadedTime': 5689.600000023842, 'positionName': 'LEFT', 'positionCoords': [817.8, 514.5], 'bid': 7.5}, {'imgObject': {}, 'id': 'strawberries', 'src': '/static/foodstim60/strawberries.jpg', 'key': 'i', 'origWidth': 410, 'origHeight': 410, 'width': 410, 'height': 410, 'widthPercent': 0.45, 'rescaleHeight': False, 'trialN': 36, 'loaded': True, 'loadedTime': 5108.199999988079, 'positionName': 'RIGHT', 'positionCoords': [1331.2, 515], 'bid': 5.95}]",60397.69999998808,1669837471162,salad w chicken,strawberries,7.5,5.95,-1.5499999999999998,salad w chicken,655.8000000119209,656,656.0,True,u,61564.10000002384,1166.4000000357628,1669837472328,1166,HRV,HRV_0261,2022-11-30 19:48:14
37,"[{'imgObject': {}, 'id': 'grilled chicken strips', 'src': '/static/foodstim60/grilled chicken strips.jpg', 'key': 'u', 'origWidth': 410, 'origHeight': 411, 'width': 410, 'height': 411, 'widthPercent': 0.45, 'rescaleHeight': False, 'trialN': 37, 'loaded': True, 'loadedTime': 5658.5, 'positionName': 'LEFT', 'positionCoords': [818.8, 514.5], 'bid': 8.65}, {'imgObject': {}, 'id': 'turkeysandwich', 'src': '/static/foodstim60/turkeysandwich.jpg', 'key': 'i', 'origWidth': 409, 'origHeight': 409, 'width': 409, 'height': 409, 'widthPercent': 0.45, 'rescaleHeight': False, 'trialN': 37, 'loaded': True, 'loadedTime': 5157.399999976158, 'positionName': 'RIGHT', 'positionCoords': [1331.2, 515.5], 'bid': 7.47}]",61564.19999998808,1669837472329,grilled chicken strips,turkeysandwich,8.65,7.47,-1.1800000000000006,turkeysandwich,822.8000000119209,823,823.1000000238419,True,i,62903.30000001192,1339.1000000238419,1669837473668,1339,HRV,HRV_0261,2022-11-30 19:48:14
38,"[{'imgObject': {}, 'id': 'kiwi', 'src': '/static/foodstim60/kiwi.jpg', 'key': 'u', 'origWidth': 410, 'origHeight': 410, 'width': 410, 'height': 410, 'widthPercent': 0.45, 'rescaleHeight': False, 'trialN': 38, 'loaded': True, 'loadedTime': 5403.699999988079, 'positionName': 'LEFT', 'positionCoords': [818.8, 515], 'bid': 8.6}, {'imgObject': {}, 'id': 'yogurt no spoon', 'src': '/static/foodstim60/yogurt no spoon.jpg', 'key': 'i', 'origWidth': 411, 'origHeight': 410, 'width': 411, 'height': 410, 'widthPercent': 0.45, 'rescaleHeight': False, 'trialN': 38, 'loaded': True, 'loadedTime': 5755, 'positionName': 'RIGHT', 'positionCoords': [1331.2, 515], 'bid': 3.95}]",62903.39999997616,1669837473668,kiwi,yogurt no spoon,8.6,3.95,-4.6499999999999995,kiwi,724.6000000238419,725,724.8000000119209,True,u,64138.5,1235.1000000238419,1669837474903,1235,HRV,HRV_0261,2022-11-30 19:48:14
39,"[{'imgObject': {}, 'id': 'bagel and cc', 'src': '/static/foodstim60/bagel and cc.jpg', 'key': 'u', 'origWidth': 410, 'origHeight': 410, 'width': 410, 'height': 410, 'widthPercent': 0.45, 'rescaleHeight': False, 'trialN': 39, 'loaded': True, 'loadedTime': 4993, 'positionName': 'LEFT', 'positionCoords': [818.8, 515], 'bid': 7.5}, {'imgObject': {}, 'id': 'chicken nuggets2', 'src': '/static/foodstim60/chicken nuggets2.jpg', 'key': 'i', 'origWidth': 410, 'origHeight': 409, 'width': 410, 'height': 409, 'widthPercent': 0.45, 'rescaleHeight': False, 'trialN': 39, 'loaded': True, 'loadedTime': 5658, 'positionName': 'RIGHT', 'positionCoords': [1331.2, 515.5], 'bid': 7.59}]",64138.60000002384,1669837474903,bagel and cc,chicken nuggets2,7.5,7.59,0.08999999999999986,chicken nuggets2,758.0999999642372,758,758.1999999880791,True,i,65399.60000002384,1261.0,1669837476164,1261,HRV,HRV_0261,2022-11-30 19:48:14
40,"[{'imgObject': {}, 'id': 'froot loops w milk', 'src': '/static/foodstim60/froot loops w milk.jpg', 'key': 'u', 'origWidth': 410, 'origHeight': 410, 'width': 410, 'height': 410, 'widthPercent': 0.45, 'rescaleHeight': False, 'trialN': 40, 'loaded': True, 'loadedTime': 5558.5, 'positionName': 'LEFT', 'positionCoords': [818.8, 515], 'bid': 6.0200000000000005}, {'imgObject': {}, 'id': 'yogurt no spoon', 'src': '/static/foodstim60/yogurt no spoon.jpg', 'key': 'i', 'origWidth': 411, 'origHeight': 410, 'width': 411, 'height': 410, 'widthPercent': 0.45, 'rescaleHeight': False, 'trialN': 40, 'loaded': True, 'loadedTime': 5755.199999988079, 'positionName': 'RIGHT', 'positionCoords': [1331.2, 515], 'bid': 3.95}]",65399.69999998808,1669837476164,froot loops w milk,yogurt no spoon,6.0200000000000005,3.95,-2.0700000000000003,yogurt no spoon,756.3000000119209,757,756.6000000238419,True,i,66675.5,1275.800000011921,1669837477440,1276,HRV,HRV_0261,2022-11-30 19:48:14
41,"[{'imgObject': {}, 'id': 'cheerios', 'src': '/static/foodstim60/cheerios.jpg', 'key': 'u', 'origWidth': 409, 'origHeight': 410, 'width': 409, 'height': 410, 'widthPercent': 0.45, 'rescaleHeight': False, 'trialN': 41, 'loaded': True, 'loadedTime': 5771, 'positionName': 'LEFT', 'positionCoords': [819.8, 515], 'bid': 6.21}, {'imgObject': {}, 'id': 'mango', 'src': '/static/foodstim60/mango.jpg', 'key': 'i', 'origWidth': 411, 'origHeight': 411, 'width': 411, 'height': 411, 'widthPercent': 0.45, 'rescaleHeight': False, 'trialN': 41, 'loaded': True, 'loadedTime': 5436.699999988079, 'positionName': 'RIGHT', 'positionCoords': [1331.2, 514.5], 'bid': 1.34}]",66675.69999998808,1669837477440,cheerios,mango,6.21,1.34,-4.87,cheerios,877.6999999880791,878,878.0,True,u,68054.60000002384,1378.9000000357628,1669837478819,1379,HRV,HRV_0261,2022-11-30 19:48:14
42,"[{'imgObject': {}, 'id': 'cocktailshrimp', 'src': '/static/foodstim60/cocktailshrimp.jpg', 'key': 'u', 'origWidth': 410, 'origHeight': 410, 'width': 410, 'height': 410, 'widthPercent': 0.45, 'rescaleHeight': False, 'trialN': 42, 'loaded': True, 'loadedTime': 5772.300000011921, 'positionName': 'LEFT', 'positionCoords': [818.8, 515], 'bid': 1.07}, {'imgObject': {}, 'id': 'cherries', 'src': '/static/foodstim60/cherries.jpg', 'key': 'i', 'origWidth': 410, 'origHeight': 411, 'width': 410, 'height': 411, 'widthPercent': 0.45, 'rescaleHeight': False, 'trialN': 42, 'loaded': True, 'loadedTime': 5708.300000011921, 'positionName': 'RIGHT', 'positionCoords': [1331.2, 514.5], 'bid': 1.1}]",68054.60000002384,1669837478819,cocktailshrimp,cherries,1.07,1.1,0.030000000000000027,cherries,746.1999999880791,746,746.5,True,i,69311.0,1256.3999999761581,1669837480075,1256,HRV,HRV_0261,2022-11-30 19:48:14
43,"[{'imgObject': {}, 'id': 'rigatoni and sauce', 'src': '/static/foodstim60/rigatoni and sauce.jpg', 'key': 'u', 'origWidth': 410, 'origHeight': 411, 'width': 410, 'height': 411, 'widthPercent': 0.45, 'rescaleHeight': False, 'trialN': 43, 'loaded': True, 'loadedTime': 5681.899999976158, 'positionName': 'LEFT', 'positionCoords': [818.8, 514.5], 'bid': 3.5700000000000003}, {'imgObject': {}, 'id': 'mashed potato', 'src': '/static/foodstim60/mashed potato.jpg', 'key': 'i', 'origWidth': 409, 'origHeight': 409, 'width': 409, 'height': 409, 'widthPercent': 0.45, 'rescaleHeight': False, 'trialN': 43, 'loaded': True, 'loadedTime': 5187.300000011921, 'positionName': 'RIGHT', 'positionCoords': [1331.2, 515.5], 'bid': 2.44}]",69311.10000002384,1669837480075,rigatoni and sauce,mashed potato,3.5700000000000003,2.44,-1.1300000000000003,rigatoni and sauce,825.3999999761581,826,825.5999999642372,True,u,70646.5,1335.3999999761581,1669837481411,1336,HRV,HRV_0261,2022-11-30 19:48:14
44,"[{'imgObject': {}, 'id': 'salmon', 'src': '/static/foodstim60/salmon.jpg', 'key': 'u', 'origWidth': 410, 'origHeight': 409, 'width': 410, 'height': 409, 'widthPercent': 0.45, 'rescaleHeight': False, 'trialN': 44, 'loaded': True, 'loadedTime': 5773.399999976158, 'positionName': 'LEFT', 'positionCoords': [818.8, 515.5], 'bid': 6.640000000000001}, {'imgObject': {}, 'id': 'raspberries', 'src': '/static/foodstim60/raspberries.jpg', 'key': 'i', 'origWidth': 411, 'origHeight': 411, 'width': 411, 'height': 411, 'widthPercent': 0.45, 'rescaleHeight': False, 'trialN': 44, 'loaded': True, 'loadedTime': 5649.300000011921, 'positionName': 'RIGHT', 'positionCoords': [1331.2, 514.5], 'bid': 6.38}]",70646.69999998808,1669837481411,salmon,raspberries,6.640000000000001,6.38,-0.2600000000000007,salmon,665.6999999880791,666,665.9000000357628,True,u,71816.60000002384,1169.9000000357628,1669837482581,1170,HRV,HRV_0261,2022-11-30 19:48:14
45,"[{'imgObject': {}, 'id': 'corn cob', 'src': '/static/foodstim60/corn cob.jpg', 'key': 'u', 'origWidth': 411, 'origHeight': 411, 'width': 411, 'height': 411, 'widthPercent': 0.45, 'rescaleHeight': False, 'trialN': 45, 'loaded': True, 'loadedTime': 4979, 'positionName': 'LEFT', 'positionCoords': [817.8, 514.5], 'bid': 5.98}, {'imgObject': {}, 'id': 'granola w milk', 'src': '/static/foodstim60/granola w milk.jpg', 'key': 'i', 'origWidth': 410, 'origHeight': 410, 'width': 410, 'height': 410, 'widthPercent': 0.45, 'rescaleHeight': False, 'trialN': 45, 'loaded': True, 'loadedTime': 5313.699999988079, 'positionName': 'RIGHT', 'positionCoords': [1331.2, 515], 'bid': 4.98}]",71816.69999998808,1669837482581,corn cob,granola w milk,5.98,4.98,-1.0,corn cob,784.8000000119209,785,785.0,True,u,73109.0,1292.300000011921,1669837483873,1292,HRV,HRV_0261,2022-11-30 19:48:14
46,"[{'imgObject': {}, 'id': 'turkey sandwich', 'src': '/static/foodstim60/turkey sandwich.jpg', 'key': 'u', 'origWidth': 409, 'origHeight': 409, 'width': 409, 'height': 409, 'widthPercent': 0.45, 'rescaleHeight': False, 'trialN': 46, 'loaded': True, 'loadedTime': 5773.600000023842, 'positionName': 'LEFT', 'positionCoords': [819.8, 515.5], 'bid': 5.49}, {'imgObject': {}, 'id': 'burger', 'src': '/static/foodstim60/burger.jpg', 'key': 'i', 'origWidth': 409, 'origHeight': 409, 'width': 409, 'height': 409, 'widthPercent': 0.45, 'rescaleHeight': False, 'trialN': 46, 'loaded': True, 'loadedTime': 4973.600000023842, 'positionName': 'RIGHT', 'positionCoords': [1331.2, 515.5], 'bid': 3.75}]",73109.10000002384,1669837483873,turkey sandwich,burger,5.49,3.75,-1.7400000000000002,burger,879.5,880,879.5999999642372,True,i,74499.89999997616,1390.7999999523163,1669837485264,1391,HRV,HRV_0261,2022-11-30 19:48:14
47,"[{'imgObject': {}, 'id': 'eggs', 'src': '/static/foodstim60/eggs.jpg', 'key': 'u', 'origWidth': 409, 'origHeight': 409, 'width': 409, 'height': 409, 'widthPercent': 0.45, 'rescaleHeight': False, 'trialN': 47, 'loaded': True, 'loadedTime': 5333, 'positionName': 'LEFT', 'positionCoords': [819.8, 515.5], 'bid': 2.76}, {'imgObject': {}, 'id': 'olives', 'src': '/static/foodstim60/olives.jpg', 'key': 'i', 'origWidth': 410, 'origHeight': 410, 'width': 410, 'height': 410, 'widthPercent': 0.45, 'rescaleHeight': False, 'trialN': 47, 'loaded': True, 'loadedTime': 5378, 'positionName': 'RIGHT', 'positionCoords': [1331.2, 515], 'bid': 2.42}]",74500.10000002384,1669837485264,eggs,olives,2.76,2.42,-0.33999999999999986,olives,1401.5,1402,1401.7999999523163,True,i,76408.19999998808,1908.0999999642372,1669837487172,1908,HRV,HRV_0261,2022-11-30 19:48:14
48,"[{'imgObject': {}, 'id': 'luckycharms', 'src': '/static/foodstim60/luckycharms.jpg', 'key': 'u', 'origWidth': 410, 'origHeight': 409, 'width': 410, 'height': 409, 'widthPercent': 0.45, 'rescaleHeight': False, 'trialN': 48, 'loaded': True, 'loadedTime': 5157.199999988079, 'positionName': 'LEFT', 'positionCoords': [818.8, 515.5], 'bid': 3.83}, {'imgObject': {}, 'id': 'baked potato', 'src': '/static/foodstim60/baked potato.jpg', 'key': 'i', 'origWidth': 409, 'origHeight': 410, 'width': 409, 'height': 410, 'widthPercent': 0.45, 'rescaleHeight': False, 'trialN': 48, 'loaded': True, 'loadedTime': 5782.899999976158, 'positionName': 'RIGHT', 'positionCoords': [1331.2, 515], 'bid': 5.64}]",76408.30000001192,1669837487173,luckycharms,baked potato,3.83,5.64,1.8099999999999996,baked potato,740.6999999880791,740,740.8999999761581,True,i,77654.60000002384,1246.300000011921,1669837488419,1246,HRV,HRV_0261,2022-11-30 19:48:14
49,"[{'imgObject': {}, 'id': 'Grapes', 'src': '/static/foodstim60/Grapes.jpg', 'key': 'u', 'origWidth': 411, 'origHeight': 411, 'width': 411, 'height': 411, 'widthPercent': 0.45, 'rescaleHeight': False, 'trialN': 49, 'loaded': True, 'loadedTime': 5746.899999976158, 'positionName': 'LEFT', 'positionCoords': [817.8, 514.5], 'bid': 4.73}, {'imgObject': {}, 'id': 'olives', 'src': '/static/foodstim60/olives.jpg', 'key': 'i', 'origWidth': 410, 'origHeight': 410, 'width': 410, 'height': 410, 'widthPercent': 0.45, 'rescaleHeight': False, 'trialN': 49, 'loaded': True, 'loadedTime': 5378.199999988079, 'positionName': 'RIGHT', 'positionCoords': [1331.2, 515], 'bid': 2.42}]",77654.80000001192,1669837488419,Grapes,olives,4.73,2.42,-2.3100000000000005,Grapes,864.6999999880791,865,864.8999999761581,True,u,79024.60000002384,1369.800000011921,1669837489789,1370,HRV,HRV_0261,2022-11-30 19:48:14
50,"[{'imgObject': {}, 'id': 'blackbeanswithrice', 'src': '/static/foodstim60/blackbeanswithrice.jpg', 'key': 'u', 'origWidth': 410, 'origHeight': 410, 'width': 410, 'height': 410, 'widthPercent': 0.45, 'rescaleHeight': False, 'trialN': 50, 'loaded': True, 'loadedTime': 5783.699999988079, 'positionName': 'LEFT', 'positionCoords': [818.8, 515], 'bid': 7.68}, {'imgObject': {}, 'id': 'mac & cheese', 'src': '/static/foodstim60/mac & cheese.jpg', 'key': 'i', 'origWidth': 410, 'origHeight': 410, 'width': 410, 'height': 410, 'widthPercent': 0.45, 'rescaleHeight': False, 'trialN': 50, 'loaded': True, 'loadedTime': 5548.300000011921, 'positionName': 'RIGHT', 'positionCoords': [1331.2, 515], 'bid': 9.46}]",79024.69999998808,1669837489789,blackbeanswithrice,mac & cheese,7.68,9.46,1.7800000000000011,mac & cheese,940.9000000357628,941,941.1000000238419,True,i,80472.89999997616,1448.199999988079,1669837491237,1448,HRV,HRV_0261,2022-11-30 19:48:14
51,"[{'imgObject': {}, 'id': 'baked potato', 'src': '/static/foodstim60/baked potato.jpg', 'key': 'u', 'origWidth': 409, 'origHeight': 410, 'width': 409, 'height': 410, 'widthPercent': 0.45, 'rescaleHeight': False, 'trialN': 51, 'loaded': True, 'loadedTime': 5781.800000011921, 'positionName': 'LEFT', 'positionCoords': [819.8, 515], 'bid': 5.64}, {'imgObject': {}, 'id': 'yogurt no spoon', 'src': '/static/foodstim60/yogurt no spoon.jpg', 'key': 'i', 'origWidth': 411, 'origHeight': 410, 'width': 411, 'height': 410, 'widthPercent': 0.45, 'rescaleHeight': False, 'trialN': 51, 'loaded': True, 'loadedTime': 5755.300000011921, 'positionName': 'RIGHT', 'positionCoords': [1331.2, 515], 'bid': 3.95}]",80473.10000002384,1669837491237,baked potato,yogurt no spoon,5.64,3.95,-1.6899999999999995,baked potato,1104.2999999523163,1105,1104.5,True,u,82091.39999997616,1618.2999999523163,1669837492856,1619,HRV,HRV_0261,2022-11-30 19:48:14
52,"[{'imgObject': {}, 'id': 'roastedpotatoes', 'src': '/static/foodstim60/roastedpotatoes.jpg', 'key': 'u', 'origWidth': 409, 'origHeight': 410, 'width': 409, 'height': 410, 'widthPercent': 0.45, 'rescaleHeight': False, 'trialN': 52, 'loaded': True, 'loadedTime': 5629.300000011921, 'positionName': 'LEFT', 'positionCoords': [819.8, 515], 'bid': 9.67}, {'imgObject': {}, 'id': 'granola w milk', 'src': '/static/foodstim60/granola w milk.jpg', 'key': 'i', 'origWidth': 410, 'origHeight': 410, 'width': 410, 'height': 410, 'widthPercent': 0.45, 'rescaleHeight': False, 'trialN': 52, 'loaded': True, 'loadedTime': 5313.899999976158, 'positionName': 'RIGHT', 'positionCoords': [1331.2, 515], 'bid': 4.98}]",82091.5,1669837492856,roastedpotatoes,granola w milk,9.67,4.98,-4.6899999999999995,roastedpotatoes,690.1999999880791,690,690.3999999761581,True,u,83288.10000002384,1196.6000000238419,1669837494052,1196,HRV,HRV_0261,2022-11-30 19:48:14
53,"[{'imgObject': {}, 'id': 'hashbrowns', 'src': '/static/foodstim60/hashbrowns.jpg', 'key': 'u', 'origWidth': 411, 'origHeight': 410, 'width': 411, 'height': 410, 'widthPercent': 0.45, 'rescaleHeight': False, 'trialN': 53, 'loaded': True, 'loadedTime': 5350.399999976158, 'positionName': 'LEFT', 'positionCoords': [817.8, 515], 'bid': 0.59}, {'imgObject': {}, 'id': 'baked potato', 'src': '/static/foodstim60/baked potato.jpg', 'key': 'i', 'origWidth': 409, 'origHeight': 410, 'width': 409, 'height': 410, 'widthPercent': 0.45, 'rescaleHeight': False, 'trialN': 53, 'loaded': True, 'loadedTime': 5782.699999988079, 'positionName': 'RIGHT', 'positionCoords': [1331.2, 515], 'bid': 5.64}]",83288.10000002384,1669837494052,hashbrowns,baked potato,0.59,5.64,5.05,baked potato,908.8999999761581,909,909.0999999642372,True,i,84712.39999997616,1424.2999999523163,1669837495477,1425,HRV,HRV_0261,2022-11-30 19:48:14
54,"[{'imgObject': {}, 'id': 'edamame', 'src': '/static/foodstim60/edamame.jpg', 'key': 'u', 'origWidth': 409, 'origHeight': 410, 'width': 409, 'height': 410, 'widthPercent': 0.45, 'rescaleHeight': False, 'trialN': 54, 'loaded': True, 'loadedTime': 5584.399999976158, 'positionName': 'LEFT', 'positionCoords': [819.8, 515], 'bid': 1.25}, {'imgObject': {}, 'id': 'burger', 'src': '/static/foodstim60/burger.jpg', 'key': 'i', 'origWidth': 409, 'origHeight': 409, 'width': 409, 'height': 409, 'widthPercent': 0.45, 'rescaleHeight': False, 'trialN': 54, 'loaded': True, 'loadedTime': 4974.300000011921, 'positionName': 'RIGHT', 'positionCoords': [1331.2, 515.5], 'bid': 3.75}]",84712.5,1669837495477,edamame,burger,1.25,3.75,2.5,burger,691.8999999761581,692,692.1999999880791,True,i,85921.89999997616,1209.3999999761581,1669837496686,1209,HRV,HRV_0261,2022-11-30 19:48:14
55,"[{'imgObject': {}, 'id': 'chickenfingers', 'src': '/static/foodstim60/chickenfingers.jpg', 'key': 'u', 'origWidth': 410, 'origHeight': 410, 'width': 410, 'height': 410, 'widthPercent': 0.45, 'rescaleHeight': False, 'trialN': 55, 'loaded': True, 'loadedTime': 5736.600000023842, 'positionName': 'LEFT', 'positionCoords': [818.8, 515], 'bid': 7.95}, {'imgObject': {}, 'id': 'bagel and cc', 'src': '/static/foodstim60/bagel and cc.jpg', 'key': 'i', 'origWidth': 410, 'origHeight': 410, 'width': 410, 'height': 410, 'widthPercent': 0.45, 'rescaleHeight': False, 'trialN': 55, 'loaded': True, 'loadedTime': 4984.5, 'positionName': 'RIGHT', 'positionCoords': [1331.2, 515], 'bid': 7.5}]",85922.10000002384,1669837496686,chickenfingers,bagel and cc,7.95,7.5,-0.4500000000000002,chickenfingers,731.5,732,731.7999999523163,True,u,87164.39999997616,1242.2999999523163,1669837497929,1243,HRV,HRV_0261,2022-11-30 19:48:14
56,"[{'imgObject': {}, 'id': 'sushi w_condiments', 'src': '/static/foodstim60/sushi w_condiments.jpg', 'key': 'u', 'origWidth': 410, 'origHeight': 410, 'width': 410, 'height': 410, 'widthPercent': 0.45, 'rescaleHeight': False, 'trialN': 56, 'loaded': True, 'loadedTime': 5791.699999988079, 'positionName': 'LEFT', 'positionCoords': [818.8, 515], 'bid': 0.45}, {'imgObject': {}, 'id': 'seaweed', 'src': '/static/foodstim60/seaweed.jpg', 'key': 'i', 'origWidth': 410, 'origHeight': 410, 'width': 410, 'height': 410, 'widthPercent': 0.45, 'rescaleHeight': False, 'trialN': 56, 'loaded': True, 'loadedTime': 5288.300000011921, 'positionName': 'RIGHT', 'positionCoords': [1331.2, 515], 'bid': 0.39}]",87164.60000002384,1669837497929,sushi w_condiments,seaweed,0.45,0.39,-0.06,seaweed,2272.7999999523163,2273,2273.0,True,i,89943.60000002384,2779.0,1669837500708,2779,HRV,HRV_0261,2022-11-30 19:48:14
57,"[{'imgObject': {}, 'id': 'popsicles', 'src': '/static/foodstim60/popsicles.jpg', 'key': 'u', 'origWidth': 410, 'origHeight': 410, 'width': 410, 'height': 410, 'widthPercent': 0.45, 'rescaleHeight': False, 'trialN': 57, 'loaded': True, 'loadedTime': 5799, 'positionName': 'LEFT', 'positionCoords': [818.8, 515], 'bid': 2.06}, {'imgObject': {}, 'id': 'eggsalad', 'src': '/static/foodstim60/eggsalad.jpg', 'key': 'i', 'origWidth': 410, 'origHeight': 409, 'width': 410, 'height': 409, 'widthPercent': 0.45, 'rescaleHeight': False, 'trialN': 57, 'loaded': True, 'loadedTime': 5263.800000011921, 'positionName': 'RIGHT', 'positionCoords': [1331.2, 515.5], 'bid': 0.72}]",89943.69999998808,1669837500708,popsicles,eggsalad,2.06,0.72,-1.34,popsicles,1159.300000011921,1160,1159.6000000238419,True,u,91616.60000002384,1672.9000000357628,1669837502381,1673,HRV,HRV_0261,2022-11-30 19:48:14
58,"[{'imgObject': {}, 'id': 'cocktailshrimp', 'src': '/static/foodstim60/cocktailshrimp.jpg', 'key': 'u', 'origWidth': 410, 'origHeight': 410, 'width': 410, 'height': 410, 'widthPercent': 0.45, 'rescaleHeight': False, 'trialN': 58, 'loaded': True, 'loadedTime': 5772.199999988079, 'positionName': 'LEFT', 'positionCoords': [818.8, 515], 'bid': 1.07}, {'imgObject': {}, 'id': 'strawberries', 'src': '/static/foodstim60/strawberries.jpg', 'key': 'i', 'origWidth': 410, 'origHeight': 410, 'width': 410, 'height': 410, 'widthPercent': 0.45, 'rescaleHeight': False, 'trialN': 58, 'loaded': True, 'loadedTime': 5107.699999988079, 'positionName': 'RIGHT', 'positionCoords': [1331.2, 515], 'bid': 5.95}]",91616.69999998808,1669837502381,cocktailshrimp,strawberries,1.07,5.95,4.88,strawberries,765.6999999880791,766,765.9000000357628,True,i,92891.10000002384,1274.4000000357628,1669837503655,1274,HRV,HRV_0261,2022-11-30 19:48:14
59,"[{'imgObject': {}, 'id': 'grilled chicken strips', 'src': '/static/foodstim60/grilled chicken strips.jpg', 'key': 'u', 'origWidth': 410, 'origHeight': 411, 'width': 410, 'height': 411, 'widthPercent': 0.45, 'rescaleHeight': False, 'trialN': 59, 'loaded': True, 'loadedTime': 5666.300000011921, 'positionName': 'LEFT', 'positionCoords': [818.8, 514.5], 'bid': 8.65}, {'imgObject': {}, 'id': 'salmon', 'src': '/static/foodstim60/salmon.jpg', 'key': 'i', 'origWidth': 410, 'origHeight': 409, 'width': 410, 'height': 409, 'widthPercent': 0.45, 'rescaleHeight': False, 'trialN': 59, 'loaded': True, 'loadedTime': 5772.5, 'positionName': 'RIGHT', 'positionCoords': [1331.2, 515.5], 'bid': 6.640000000000001}]",92891.30000001192,1669837503656,grilled chicken strips,salmon,8.65,6.640000000000001,-2.01,salmon,1230.300000011921,1230,1230.5,True,i,94633.60000002384,1742.300000011921,1669837505398,1742,HRV,HRV_0261,2022-11-30 19:48:14
60,"[{'imgObject': {}, 'id': 'turkeysandwich', 'src': '/static/foodstim60/turkeysandwich.jpg', 'key': 'u', 'origWidth': 409, 'origHeight': 409, 'width': 409, 'height': 409, 'widthPercent': 0.45, 'rescaleHeight': False, 'trialN': 60, 'loaded': True, 'loadedTime': 5176.100000023842, 'positionName': 'LEFT', 'positionCoords': [819.8, 515.5], 'bid': 7.47}, {'imgObject': {}, 'id': 'baked potato', 'src': '/static/foodstim60/baked potato.jpg', 'key': 'i', 'origWidth': 409, 'origHeight': 410, 'width': 409, 'height': 410, 'widthPercent': 0.45, 'rescaleHeight': False, 'trialN': 60, 'loaded': True, 'loadedTime': 5782.600000023842, 'positionName': 'RIGHT', 'positionCoords': [1331.2, 515], 'bid': 5.64}]",94633.60000002384,1669837505398,turkeysandwich,baked potato,7.47,5.64,-1.83,turkeysandwich,743.7999999523163,744,744.0999999642372,True,u,95890.5,1256.8999999761581,1669837506655,1257,HRV,HRV_0261,2022-11-30 19:48:14
61,"[{'imgObject': {}, 'id': 'grilled chicken strips', 'src': '/static/foodstim60/grilled chicken strips.jpg', 'key': 'u', 'origWidth': 410, 'origHeight': 411, 'width': 410, 'height': 411, 'widthPercent': 0.45, 'rescaleHeight': False, 'trialN': 61, 'loaded': True, 'loadedTime': 5665.899999976158, 'positionName': 'LEFT', 'positionCoords': [818.8, 514.5], 'bid': 8.65}, {'imgObject': {}, 'id': 'roastedpotatoes', 'src': '/static/foodstim60/roastedpotatoes.jpg', 'key': 'i', 'origWidth': 409, 'origHeight': 410, 'width': 409, 'height': 410, 'widthPercent': 0.45, 'rescaleHeight': False, 'trialN': 61, 'loaded': True, 'loadedTime': 5613, 'positionName': 'RIGHT', 'positionCoords': [1331.2, 515], 'bid': 9.67}]",95890.60000002384,1669837506655,grilled chicken strips,roastedpotatoes,8.65,9.67,1.0199999999999996,roastedpotatoes,840.0,840,840.2999999523163,True,i,97248.5,1357.8999999761581,1669837508013,1358,HRV,HRV_0261,2022-11-30 19:48:14
62,"[{'imgObject': {}, 'id': 'avocado', 'src': '/static/foodstim60/avocado.jpg', 'key': 'u', 'origWidth': 409, 'origHeight': 409, 'width': 409, 'height': 409, 'widthPercent': 0.45, 'rescaleHeight': False, 'trialN': 62, 'loaded': True, 'loadedTime': 5800.300000011921, 'positionName': 'LEFT', 'positionCoords': [819.8, 515.5], 'bid': 7.67}, {'imgObject': {}, 'id': 'apple slices', 'src': '/static/foodstim60/apple slices.jpg', 'key': 'i', 'origWidth': 409, 'origHeight': 410, 'width': 409, 'height': 410, 'widthPercent': 0.45, 'rescaleHeight': False, 'trialN': 62, 'loaded': True, 'loadedTime': 5421.600000023842, 'positionName': 'RIGHT', 'positionCoords': [1331.2, 515], 'bid': 6.5}]",97248.60000002384,1669837508013,avocado,apple slices,7.67,6.5,-1.17,avocado,904.0,904,904.1999999880791,True,u,98664.10000002384,1415.5,1669837509428,1415,HRV,HRV_0261,2022-11-30 19:48:14
63,"[{'imgObject': {}, 'id': 'bagel and cc', 'src': '/static/foodstim60/bagel and cc.jpg', 'key': 'u', 'origWidth': 410, 'origHeight': 410, 'width': 410, 'height': 410, 'widthPercent': 0.45, 'rescaleHeight': False, 'trialN': 63, 'loaded': True, 'loadedTime': 4992.800000011921, 'positionName': 'LEFT', 'positionCoords': [818.8, 515], 'bid': 7.5}, {'imgObject': {}, 'id': 'mac & cheese', 'src': '/static/foodstim60/mac & cheese.jpg', 'key': 'i', 'origWidth': 410, 'origHeight': 410, 'width': 410, 'height': 410, 'widthPercent': 0.45, 'rescaleHeight': False, 'trialN': 63, 'loaded': True, 'loadedTime': 5537.100000023842, 'positionName': 'RIGHT', 'positionCoords': [1331.2, 515], 'bid': 9.46}]",98664.19999998808,1669837509429,bagel and cc,mac & cheese,7.5,9.46,1.9600000000000009,mac & cheese,766.3000000119209,766,766.5,True,i,99939.10000002384,1274.9000000357628,1669837510703,1274,HRV,HRV_0261,2022-11-30 19:48:14
64,"[{'imgObject': {}, 'id': 'mashed potato', 'src': '/static/foodstim60/mashed potato.jpg', 'key': 'u', 'origWidth': 409, 'origHeight': 409, 'width': 409, 'height': 409, 'widthPercent': 0.45, 'rescaleHeight': False, 'trialN': 64, 'loaded': True, 'loadedTime': 5185.5, 'positionName': 'LEFT', 'positionCoords': [819.8, 515.5], 'bid': 2.44}, {'imgObject': {}, 'id': 'raisin bran w milk', 'src': '/static/foodstim60/raisin bran w milk.jpg', 'key': 'i', 'origWidth': 411, 'origHeight': 411, 'width': 411, 'height': 411, 'widthPercent': 0.45, 'rescaleHeight': False, 'trialN': 64, 'loaded': True, 'loadedTime': 5089.300000011921, 'positionName': 'RIGHT', 'positionCoords': [1331.2, 514.5], 'bid': 4.8500000000000005}]",99939.30000001192,1669837510704,mashed potato,raisin bran w milk,2.44,4.8500000000000005,2.4100000000000006,raisin bran w milk,1207.699999988079,1208,1208.0,True,i,101666.39999997616,1727.0999999642372,1669837512431,1727,HRV,HRV_0261,2022-11-30 19:48:14
65,"[{'imgObject': {}, 'id': 'cantaloupe', 'src': '/static/foodstim60/cantaloupe.jpg', 'key': 'u', 'origWidth': 409, 'origHeight': 409, 'width': 409, 'height': 409, 'widthPercent': 0.45, 'rescaleHeight': False, 'trialN': 65, 'loaded': True, 'loadedTime': 5809, 'positionName': 'LEFT', 'positionCoords': [819.8, 515.5], 'bid': 7.77}, {'imgObject': {}, 'id': 'veggieswithdip', 'src': '/static/foodstim60/veggieswithdip.jpg', 'key': 'i', 'origWidth': 409, 'origHeight': 409, 'width': 409, 'height': 409, 'widthPercent': 0.45, 'rescaleHeight': False, 'trialN': 65, 'loaded': True, 'loadedTime': 5738, 'positionName': 'RIGHT', 'positionCoords': [1331.2, 515.5], 'bid': 8.05}]",101666.5,1669837512431,cantaloupe,veggieswithdip,7.77,8.05,0.28000000000000114,cantaloupe,788.0,788,788.1999999880791,True,u,102966.0,1299.5,1669837513730,1299,HRV,HRV_0261,2022-11-30 19:48:14
66,"[{'imgObject': {}, 'id': 'shreddedwheatwithmilk', 'src': '/static/foodstim60/shreddedwheatwithmilk.jpg', 'key': 'u', 'origWidth': 410, 'origHeight': 410, 'width': 410, 'height': 410, 'widthPercent': 0.45, 'rescaleHeight': False, 'trialN': 66, 'loaded': True, 'loadedTime': 5809.100000023842, 'positionName': 'LEFT', 'positionCoords': [818.8, 515], 'bid': 7.38}, {'imgObject': {}, 'id': 'kiwi', 'src': '/static/foodstim60/kiwi.jpg', 'key': 'i', 'origWidth': 410, 'origHeight': 410, 'width': 410, 'height': 410, 'widthPercent': 0.45, 'rescaleHeight': False, 'trialN': 66, 'loaded': True, 'loadedTime': 5378.5, 'positionName': 'RIGHT', 'positionCoords': [1331.2, 515], 'bid': 8.6}]",102966.30000001192,1669837513731,shreddedwheatwithmilk,kiwi,7.38,8.6,1.2199999999999998,kiwi,826.6999999880791,826,826.8999999761581,True,i,104299.10000002384,1332.800000011921,1669837515063,1332,HRV,HRV_0261,2022-11-30 19:48:14
67,"[{'imgObject': {}, 'id': 'tacos', 'src': '/static/foodstim60/tacos.jpg', 'key': 'u', 'origWidth': 411, 'origHeight': 411, 'width': 411, 'height': 411, 'widthPercent': 0.45, 'rescaleHeight': False, 'trialN': 67, 'loaded': True, 'loadedTime': 5455.399999976158, 'positionName': 'LEFT', 'positionCoords': [817.8, 514.5], 'bid': 3.94}, {'imgObject': {}, 'id': 'veggieswithdip', 'src': '/static/foodstim60/veggieswithdip.jpg', 'key': 'i', 'origWidth': 409, 'origHeight': 409, 'width': 409, 'height': 409, 'widthPercent': 0.45, 'rescaleHeight': False, 'trialN': 67, 'loaded': True, 'loadedTime': 5737, 'positionName': 'RIGHT', 'positionCoords': [1331.2, 515.5], 'bid': 8.05}]",104299.19999998808,1669837515063,tacos,veggieswithdip,3.94,8.05,4.110000000000001,veggieswithdip,1462.300000011921,1463,1462.5,True,i,106265.0,1965.800000011921,1669837517029,1966,HRV,HRV_0261,2022-11-30 19:48:14
68,"[{'imgObject': {}, 'id': 'cheerios', 'src': '/static/foodstim60/cheerios.jpg', 'key': 'u', 'origWidth': 409, 'origHeight': 410, 'width': 409, 'height': 410, 'widthPercent': 0.45, 'rescaleHeight': False, 'trialN': 68, 'loaded': True, 'loadedTime': 5764.100000023842, 'positionName': 'LEFT', 'positionCoords': [819.8, 515], 'bid': 6.21}, {'imgObject': {}, 'id': 'blackbeanswithrice', 'src': '/static/foodstim60/blackbeanswithrice.jpg', 'key': 'i', 'origWidth': 410, 'origHeight': 410, 'width': 410, 'height': 410, 'widthPercent': 0.45, 'rescaleHeight': False, 'trialN': 68, 'loaded': True, 'loadedTime': 5783.699999988079, 'positionName': 'RIGHT', 'positionCoords': [1331.2, 515], 'bid': 7.68}]",106265.19999998808,1669837517029,cheerios,blackbeanswithrice,6.21,7.68,1.4699999999999998,blackbeanswithrice,1301.5,1302,1301.699999988079,True,i,108081.69999998808,1816.5,1669837518846,1817,HRV,HRV_0261,2022-11-30 19:48:14
69,"[{'imgObject': {}, 'id': 'shreddedwheatwithmilk', 'src': '/static/foodstim60/shreddedwheatwithmilk.jpg', 'key': 'u', 'origWidth': 410, 'origHeight': 410, 'width': 410, 'height': 410, 'widthPercent': 0.45, 'rescaleHeight': False, 'trialN': 69, 'loaded': True, 'loadedTime': 5810, 'positionName': 'LEFT', 'positionCoords': [818.8, 515], 'bid': 7.38}, {'imgObject': {}, 'id': 'Tribe humus pita', 'src': '/static/foodstim60/Tribe humus pita.jpg', 'key': 'i', 'origWidth': 411, 'origHeight': 411, 'width': 411, 'height': 411, 'widthPercent': 0.45, 'rescaleHeight': False, 'trialN': 69, 'loaded': True, 'loadedTime': 5506.300000011921, 'positionName': 'RIGHT', 'positionCoords': [1331.2, 514.5], 'bid': 3.12}]",108081.80000001192,1669837518846,shreddedwheatwithmilk,Tribe humus pita,7.38,3.12,-4.26,shreddedwheatwithmilk,859.6999999880791,860,859.8999999761581,True,u,109450.39999997616,1368.5999999642372,1669837520215,1369,HRV,HRV_0261,2022-11-30 19:48:14
70,"[{'imgObject': {}, 'id': 'blueberries', 'src': '/static/foodstim60/blueberries.jpg', 'key': 'u', 'origWidth': 411, 'origHeight': 411, 'width': 411, 'height': 411, 'widthPercent': 0.45, 'rescaleHeight': False, 'trialN': 70, 'loaded': True, 'loadedTime': 5811.100000023842, 'positionName': 'LEFT', 'positionCoords': [817.8, 514.5], 'bid': 6.21}, {'imgObject': {}, 'id': 'omelette', 'src': '/static/foodstim60/omelette.jpg', 'key': 'i', 'origWidth': 410, 'origHeight': 409, 'width': 410, 'height': 409, 'widthPercent': 0.45, 'rescaleHeight': False, 'trialN': 70, 'loaded': True, 'loadedTime': 5528.5, 'positionName': 'RIGHT', 'positionCoords': [1331.2, 515.5], 'bid': 1.55}]",109450.60000002384,1669837520215,blueberries,omelette,6.21,1.55,-4.66,blueberries,824.8999999761581,825,825.1999999880791,True,u,110786.19999998808,1335.5999999642372,1669837521550,1335,HRV,HRV_0261,2022-11-30 19:48:14
71,"[{'imgObject': {}, 'id': 'Grapes', 'src': '/static/foodstim60/Grapes.jpg', 'key': 'u', 'origWidth': 411, 'origHeight': 411, 'width': 411, 'height': 411, 'widthPercent': 0.45, 'rescaleHeight': False, 'trialN': 71, 'loaded': True, 'loadedTime': 5746.800000011921, 'positionName': 'LEFT', 'positionCoords': [817.8, 514.5], 'bid': 4.73}, {'imgObject': {}, 'id': 'cherry tomato', 'src': '/static/foodstim60/cherry tomato.jpg', 'key': 'i', 'origWidth': 410, 'origHeight': 410, 'width': 410, 'height': 410, 'widthPercent': 0.45, 'rescaleHeight': False, 'trialN': 71, 'loaded': True, 'loadedTime': 4977.399999976158, 'positionName': 'RIGHT', 'positionCoords': [1331.2, 515], 'bid': 5.67}]",110786.39999997616,1669837521551,Grapes,cherry tomato,4.73,5.67,0.9399999999999995,Grapes,936.1000000238419,936,936.3000000119209,True,u,112245.0,1458.6000000238419,1669837523009,1458,HRV,HRV_0261,2022-11-30 19:48:14
72,"[{'imgObject': {}, 'id': 'turkey sandwich', 'src': '/static/foodstim60/turkey sandwich.jpg', 'key': 'u', 'origWidth': 409, 'origHeight': 409, 'width': 409, 'height': 409, 'widthPercent': 0.45, 'rescaleHeight': False, 'trialN': 72, 'loaded': True, 'loadedTime': 5774.300000011921, 'positionName': 'LEFT', 'positionCoords': [819.8, 515.5], 'bid': 5.49}, {'imgObject': {}, 'id': 'granola w milk', 'src': '/static/foodstim60/granola w milk.jpg', 'key': 'i', 'origWidth': 410, 'origHeight': 410, 'width': 410, 'height': 410, 'widthPercent': 0.45, 'rescaleHeight': False, 'trialN': 72, 'loaded': True, 'loadedTime': 5305, 'positionName': 'RIGHT', 'positionCoords': [1331.2, 515], 'bid': 4.98}]",112245.10000002384,1669837523009,turkey sandwich,granola w milk,5.49,4.98,-0.5099999999999998,turkey sandwich,757.3999999761581,758,757.5999999642372,True,u,113524.0,1278.8999999761581,1669837524288,1279,HRV,HRV_0261,2022-11-30 19:48:14
73,"[{'imgObject': {}, 'id': 'veggieswithdip', 'src': '/static/foodstim60/veggieswithdip.jpg', 'key': 'u', 'origWidth': 409, 'origHeight': 409, 'width': 409, 'height': 409, 'widthPercent': 0.45, 'rescaleHeight': False, 'trialN': 73, 'loaded': True, 'loadedTime': 5737.800000011921, 'positionName': 'LEFT', 'positionCoords': [819.8, 515.5], 'bid': 8.05}, {'imgObject': {}, 'id': 'chickenfingers', 'src': '/static/foodstim60/chickenfingers.jpg', 'key': 'i', 'origWidth': 410, 'origHeight': 410, 'width': 410, 'height': 410, 'widthPercent': 0.45, 'rescaleHeight': False, 'trialN': 73, 'loaded': True, 'loadedTime': 5729.800000011921, 'positionName': 'RIGHT', 'positionCoords': [1331.2, 515], 'bid': 7.95}]",113524.19999998808,1669837524288,veggieswithdip,chickenfingers,8.05,7.95,-0.10000000000000053,chickenfingers,1115.199999988079,1116,1115.4000000357628,True,i,115146.19999998808,1622.0,1669837525910,1622,HRV,HRV_0261,2022-11-30 19:48:14
74,"[{'imgObject': {}, 'id': 'salad w chicken', 'src': '/static/foodstim60/salad w chicken.jpg', 'key': 'u', 'origWidth': 411, 'origHeight': 411, 'width': 411, 'height': 411, 'widthPercent': 0.45, 'rescaleHeight': False, 'trialN': 74, 'loaded': True, 'loadedTime': 5690.100000023842, 'positionName': 'LEFT', 'positionCoords': [817.8, 514.5], 'bid': 7.5}, {'imgObject': {}, 'id': 'veggieswithdip', 'src': '/static/foodstim60/veggieswithdip.jpg', 'key': 'i', 'origWidth': 409, 'origHeight': 409, 'width': 409, 'height': 409, 'widthPercent': 0.45, 'rescaleHeight': False, 'trialN': 74, 'loaded': True, 'loadedTime': 5738.100000023842, 'positionName': 'RIGHT', 'positionCoords': [1331.2, 515.5], 'bid': 8.05}]",115146.30000001192,1669837525911,salad w chicken,veggieswithdip,7.5,8.05,0.5500000000000007,salad w chicken,683.6999999880791,684,683.8999999761581,True,u,116344.30000001192,1198.0,1669837527109,1198,HRV,HRV_0261,2022-11-30 19:48:14
75,"[{'imgObject': {}, 'id': 'hotdog w must', 'src': '/static/foodstim60/hotdog w must.jpg', 'key': 'u', 'origWidth': 409, 'origHeight': 409, 'width': 409, 'height': 409, 'widthPercent': 0.45, 'rescaleHeight': False, 'trialN': 75, 'loaded': True, 'loadedTime': 5812, 'positionName': 'LEFT', 'positionCoords': [819.8, 515.5], 'bid': 2.25}, {'imgObject': {}, 'id': 'cherries', 'src': '/static/foodstim60/cherries.jpg', 'key': 'i', 'origWidth': 410, 'origHeight': 411, 'width': 410, 'height': 411, 'widthPercent': 0.45, 'rescaleHeight': False, 'trialN': 75, 'loaded': True, 'loadedTime': 5718.399999976158, 'positionName': 'RIGHT', 'positionCoords': [1331.2, 514.5], 'bid': 1.1}]",116344.5,1669837527109,hotdog w must,cherries,2.25,1.1,-1.15,hotdog w must,1019.1000000238419,1019,1019.1999999880791,True,u,117879.60000002384,1535.1000000238419,1669837528644,1535,HRV,HRV_0261,2022-11-30 19:48:14
76,"[{'imgObject': {}, 'id': 'eggs', 'src': '/static/foodstim60/eggs.jpg', 'key': 'u', 'origWidth': 409, 'origHeight': 409, 'width': 409, 'height': 409, 'widthPercent': 0.45, 'rescaleHeight': False, 'trialN': 76, 'loaded': True, 'loadedTime': 5339.399999976158, 'positionName': 'LEFT', 'positionCoords': [819.8, 515.5], 'bid': 2.76}, {'imgObject': {}, 'id': 'fruitsalad', 'src': '/static/foodstim60/fruitsalad.jpg', 'key': 'i', 'origWidth': 410, 'origHeight': 410, 'width': 410, 'height': 410, 'widthPercent': 0.45, 'rescaleHeight': False, 'trialN': 76, 'loaded': True, 'loadedTime': 5584.800000011921, 'positionName': 'RIGHT', 'positionCoords': [1331.2, 515], 'bid': 7.21}]",117879.80000001192,1669837528644,eggs,fruitsalad,2.76,7.21,4.45,fruitsalad,737.5999999642372,738,737.8999999761581,True,i,119119.69999998808,1239.8999999761581,1669837529884,1240,HRV,HRV_0261,2022-11-30 19:48:14
77,"[{'imgObject': {}, 'id': 'omelette', 'src': '/static/foodstim60/omelette.jpg', 'key': 'u', 'origWidth': 410, 'origHeight': 409, 'width': 410, 'height': 409, 'widthPercent': 0.45, 'rescaleHeight': False, 'trialN': 77, 'loaded': True, 'loadedTime': 5536.699999988079, 'positionName': 'LEFT', 'positionCoords': [818.8, 515.5], 'bid': 1.55}, {'imgObject': {}, 'id': 'lox', 'src': '/static/foodstim60/lox.jpg', 'key': 'i', 'origWidth': 410, 'origHeight': 411, 'width': 410, 'height': 411, 'widthPercent': 0.45, 'rescaleHeight': False, 'trialN': 77, 'loaded': True, 'loadedTime': 5706.5, 'positionName': 'RIGHT', 'positionCoords': [1331.2, 514.5], 'bid': 2.14}]",119119.89999997616,1669837529884,omelette,lox,1.55,2.14,0.5900000000000001,omelette,1403.7000000476837,1404,1403.800000011921,True,u,121032.80000001192,1912.9000000357628,1669837531797,1913,HRV,HRV_0261,2022-11-30 19:48:14
78,"[{'imgObject': {}, 'id': 'salad w chicken', 'src': '/static/foodstim60/salad w chicken.jpg', 'key': 'u', 'origWidth': 411, 'origHeight': 411, 'width': 411, 'height': 411, 'widthPercent': 0.45, 'rescaleHeight': False, 'trialN': 78, 'loaded': True, 'loadedTime': 5682, 'positionName': 'LEFT', 'positionCoords': [817.8, 514.5], 'bid': 7.5}, {'imgObject': {}, 'id': 'roastedpotatoes', 'src': '/static/foodstim60/roastedpotatoes.jpg', 'key': 'i', 'origWidth': 409, 'origHeight': 410, 'width': 409, 'height': 410, 'widthPercent': 0.45, 'rescaleHeight': False, 'trialN': 78, 'loaded': True, 'loadedTime': 5622.699999988079, 'positionName': 'RIGHT', 'positionCoords': [1331.2, 515], 'bid': 9.67}]",121032.89999997616,1669837531797,salad w chicken,roastedpotatoes,7.5,9.67,2.17,salad w chicken,831.6000000238419,832,831.9000000357628,True,u,122369.5,1336.6000000238419,1669837533134,1337,HRV,HRV_0261,2022-11-30 19:48:14
79,"[{'imgObject': {}, 'id': 'baked potato', 'src': '/static/foodstim60/baked potato.jpg', 'key': 'u', 'origWidth': 409, 'origHeight': 410, 'width': 409, 'height': 410, 'widthPercent': 0.45, 'rescaleHeight': False, 'trialN': 79, 'loaded': True, 'loadedTime': 5782.800000011921, 'positionName': 'LEFT', 'positionCoords': [819.8, 515], 'bid': 5.64}, {'imgObject': {}, 'id': 'cherry tomato', 'src': '/static/foodstim60/cherry tomato.jpg', 'key': 'i', 'origWidth': 410, 'origHeight': 410, 'width': 410, 'height': 410, 'widthPercent': 0.45, 'rescaleHeight': False, 'trialN': 79, 'loaded': True, 'loadedTime': 4978.100000023842, 'positionName': 'RIGHT', 'positionCoords': [1331.2, 515], 'bid': 5.67}]",122369.60000002384,1669837533134,baked potato,cherry tomato,5.64,5.67,0.03000000000000025,cherry tomato,1087.7999999523163,1088,1088.0999999642372,True,i,123970.19999998808,1600.5999999642372,1669837534735,1601,HRV,HRV_0261,2022-11-30 19:48:14
80,"[{'imgObject': {}, 'id': 'salmon', 'src': '/static/foodstim60/salmon.jpg', 'key': 'u', 'origWidth': 410, 'origHeight': 409, 'width': 410, 'height': 409, 'widthPercent': 0.45, 'rescaleHeight': False, 'trialN': 80, 'loaded': True, 'loadedTime': 5773.5, 'positionName': 'LEFT', 'positionCoords': [818.8, 515.5], 'bid': 6.640000000000001}, {'imgObject': {}, 'id': 'froot loops w milk', 'src': '/static/foodstim60/froot loops w milk.jpg', 'key': 'i', 'origWidth': 410, 'origHeight': 410, 'width': 410, 'height': 410, 'widthPercent': 0.45, 'rescaleHeight': False, 'trialN': 80, 'loaded': True, 'loadedTime': 5566, 'positionName': 'RIGHT', 'positionCoords': [1331.2, 515], 'bid': 6.0200000000000005}]",123970.30000001192,1669837534735,salmon,froot loops w milk,6.640000000000001,6.0200000000000005,-0.6200000000000001,salmon,721.1999999880791,721,721.3999999761581,True,u,125201.80000001192,1231.5,1669837535966,1231,HRV,HRV_0261,2022-11-30 19:48:14
81,"[{'imgObject': {}, 'id': 'tacos', 'src': '/static/foodstim60/tacos.jpg', 'key': 'u', 'origWidth': 411, 'origHeight': 411, 'width': 411, 'height': 411, 'widthPercent': 0.45, 'rescaleHeight': False, 'trialN': 81, 'loaded': True, 'loadedTime': 5454.100000023842, 'positionName': 'LEFT', 'positionCoords': [817.8, 514.5], 'bid': 3.94}, {'imgObject': {}, 'id': 'burrito', 'src': '/static/foodstim60/burrito.jpg', 'key': 'i', 'origWidth': 410, 'origHeight': 410, 'width': 410, 'height': 410, 'widthPercent': 0.45, 'rescaleHeight': False, 'trialN': 81, 'loaded': True, 'loadedTime': 5495.300000011921, 'positionName': 'RIGHT', 'positionCoords': [1331.2, 515], 'bid': 3.92}]",125201.89999997616,1669837535966,tacos,burrito,3.94,3.92,-0.020000000000000018,burrito,1092.4000000357628,1093,1092.7000000476837,True,i,126800.60000002384,1598.7000000476837,1669837537565,1599,HRV,HRV_0261,2022-11-30 19:48:14
82,"[{'imgObject': {}, 'id': 'cocktailshrimp', 'src': '/static/foodstim60/cocktailshrimp.jpg', 'key': 'u', 'origWidth': 410, 'origHeight': 410, 'width': 410, 'height': 410, 'widthPercent': 0.45, 'rescaleHeight': False, 'trialN': 82, 'loaded': True, 'loadedTime': 5772.399999976158, 'positionName': 'LEFT', 'positionCoords': [818.8, 515], 'bid': 1.07}, {'imgObject': {}, 'id': 'edamame', 'src': '/static/foodstim60/edamame.jpg', 'key': 'i', 'origWidth': 409, 'origHeight': 410, 'width': 409, 'height': 410, 'widthPercent': 0.45, 'rescaleHeight': False, 'trialN': 82, 'loaded': True, 'loadedTime': 5584.300000011921, 'positionName': 'RIGHT', 'positionCoords': [1331.2, 515], 'bid': 1.25}]",126800.69999998808,1669837537565,cocktailshrimp,edamame,1.07,1.25,0.17999999999999994,edamame,1611.699999988079,1612,1612.0,True,i,128927.60000002384,2126.900000035763,1669837539692,2127,HRV,HRV_0261,2022-11-30 19:48:14
83,"[{'imgObject': {}, 'id': 'blackbeanswithrice', 'src': '/static/foodstim60/blackbeanswithrice.jpg', 'key': 'u', 'origWidth': 410, 'origHeight': 410, 'width': 410, 'height': 410, 'widthPercent': 0.45, 'rescaleHeight': False, 'trialN': 83, 'loaded': True, 'loadedTime': 5783.699999988079, 'positionName': 'LEFT', 'positionCoords': [818.8, 515], 'bid': 7.68}, {'imgObject': {}, 'id': 'luckycharms', 'src': '/static/foodstim60/luckycharms.jpg', 'key': 'i', 'origWidth': 410, 'origHeight': 409, 'width': 410, 'height': 409, 'widthPercent': 0.45, 'rescaleHeight': False, 'trialN': 83, 'loaded': True, 'loadedTime': 5147.699999988079, 'positionName': 'RIGHT', 'positionCoords': [1331.2, 515.5], 'bid': 3.83}]",128927.69999998808,1669837539692,blackbeanswithrice,luckycharms,7.68,3.83,-3.8499999999999996,blackbeanswithrice,779.0,779,779.1999999880791,True,u,130218.69999998808,1291.0,1669837540983,1291,HRV,HRV_0261,2022-11-30 19:48:14
84,"[{'imgObject': {}, 'id': 'chickenfingers', 'src': '/static/foodstim60/chickenfingers.jpg', 'key': 'u', 'origWidth': 410, 'origHeight': 410, 'width': 410, 'height': 410, 'widthPercent': 0.45, 'rescaleHeight': False, 'trialN': 84, 'loaded': True, 'loadedTime': 5729.399999976158, 'positionName': 'LEFT', 'positionCoords': [818.8, 515], 'bid': 7.95}, {'imgObject': {}, 'id': 'burrito', 'src': '/static/foodstim60/burrito.jpg', 'key': 'i', 'origWidth': 410, 'origHeight': 410, 'width': 410, 'height': 410, 'widthPercent': 0.45, 'rescaleHeight': False, 'trialN': 84, 'loaded': True, 'loadedTime': 5495.5, 'positionName': 'RIGHT', 'positionCoords': [1331.2, 515], 'bid': 3.92}]",130218.89999997616,1669837540983,chickenfingers,burrito,7.95,3.92,-4.03,chickenfingers,768.4000000357628,769,768.6000000238419,True,u,131504.10000002384,1285.2000000476837,1669837542268,1285,HRV,HRV_0261,2022-11-30 19:48:14
85,"[{'imgObject': {}, 'id': 'fried eggs', 'src': '/static/foodstim60/fried eggs.jpg', 'key': 'u', 'origWidth': 410, 'origHeight': 410, 'width': 410, 'height': 410, 'widthPercent': 0.45, 'rescaleHeight': False, 'trialN': 85, 'loaded': True, 'loadedTime': 5252.5, 'positionName': 'LEFT', 'positionCoords': [818.8, 515], 'bid': 5.29}, {'imgObject': {}, 'id': 'sweetpotato', 'src': '/static/foodstim60/sweetpotato.jpg', 'key': 'i', 'origWidth': 410, 'origHeight': 410, 'width': 410, 'height': 410, 'widthPercent': 0.45, 'rescaleHeight': False, 'trialN': 85, 'loaded': True, 'loadedTime': 5033.699999988079, 'positionName': 'RIGHT', 'positionCoords': [1331.2, 515], 'bid': 3.72}]",131504.30000001192,1669837542269,fried eggs,sweetpotato,5.29,3.72,-1.5699999999999998,fried eggs,775.3999999761581,775,775.5999999642372,True,u,132791.10000002384,1286.800000011921,1669837543555,1286,HRV,HRV_0261,2022-11-30 19:48:14
86,"[{'imgObject': {}, 'id': 'cocktailshrimp', 'src': '/static/foodstim60/cocktailshrimp.jpg', 'key': 'u', 'origWidth': 410, 'origHeight': 410, 'width': 410, 'height': 410, 'widthPercent': 0.45, 'rescaleHeight': False, 'trialN': 86, 'loaded': True, 'loadedTime': 5772.199999988079, 'positionName': 'LEFT', 'positionCoords': [818.8, 515], 'bid': 1.07}, {'imgObject': {}, 'id': 'rigatoni and sauce', 'src': '/static/foodstim60/rigatoni and sauce.jpg', 'key': 'i', 'origWidth': 410, 'origHeight': 411, 'width': 410, 'height': 411, 'widthPercent': 0.45, 'rescaleHeight': False, 'trialN': 86, 'loaded': True, 'loadedTime': 5675.600000023842, 'positionName': 'RIGHT', 'positionCoords': [1331.2, 514.5], 'bid': 3.5700000000000003}]",132791.19999998808,1669837543556,cocktailshrimp,rigatoni and sauce,1.07,3.5700000000000003,2.5,rigatoni and sauce,815.1999999880791,815,815.5,True,i,134123.39999997616,1332.199999988079,1669837544888,1332,HRV,HRV_0261,2022-11-30 19:48:14
87,"[{'imgObject': {}, 'id': 'sushi w_condiments', 'src': '/static/foodstim60/sushi w_condiments.jpg', 'key': 'u', 'origWidth': 410, 'origHeight': 410, 'width': 410, 'height': 410, 'widthPercent': 0.45, 'rescaleHeight': False, 'trialN': 87, 'loaded': True, 'loadedTime': 5792, 'positionName': 'LEFT', 'positionCoords': [818.8, 515], 'bid': 0.45}, {'imgObject': {}, 'id': 'turkey sandwich', 'src': '/static/foodstim60/turkey sandwich.jpg', 'key': 'i', 'origWidth': 409, 'origHeight': 409, 'width': 409, 'height': 409, 'widthPercent': 0.45, 'rescaleHeight': False, 'trialN': 87, 'loaded': True, 'loadedTime': 5781.600000023842, 'positionName': 'RIGHT', 'positionCoords': [1331.2, 515.5], 'bid': 5.49}]",134123.5,1669837544888,sushi w_condiments,turkey sandwich,0.45,5.49,5.04,turkey sandwich,734.1000000238419,734,734.3000000119209,True,i,135365.0,1241.5,1669837546129,1241,HRV,HRV_0261,2022-11-30 19:48:14
88,"[{'imgObject': {}, 'id': 'popsicles', 'src': '/static/foodstim60/popsicles.jpg', 'key': 'u', 'origWidth': 410, 'origHeight': 410, 'width': 410, 'height': 410, 'widthPercent': 0.45, 'rescaleHeight': False, 'trialN': 88, 'loaded': True, 'loadedTime': 5799.399999976158, 'positionName': 'LEFT', 'positionCoords': [818.8, 515], 'bid': 2.06}, {'imgObject': {}, 'id': 'burrito', 'src': '/static/foodstim60/burrito.jpg', 'key': 'i', 'origWidth': 410, 'origHeight': 410, 'width': 410, 'height': 410, 'widthPercent': 0.45, 'rescaleHeight': False, 'trialN': 88, 'loaded': True, 'loadedTime': 5485.899999976158, 'positionName': 'RIGHT', 'positionCoords': [1331.2, 515], 'bid': 3.92}]",135365.19999998808,1669837546130,popsicles,burrito,2.06,3.92,1.8599999999999999,burrito,759.1999999880791,759,759.5,True,i,136642.0,1276.800000011921,1669837547406,1276,HRV,HRV_0261,2022-11-30 19:48:14
89,"[{'imgObject': {}, 'id': 'lox', 'src': '/static/foodstim60/lox.jpg', 'key': 'u', 'origWidth': 410, 'origHeight': 411, 'width': 410, 'height': 411, 'widthPercent': 0.45, 'rescaleHeight': False, 'trialN': 89, 'loaded': True, 'loadedTime': 5690.199999988079, 'positionName': 'LEFT', 'positionCoords': [818.8, 514.5], 'bid': 2.14}, {'imgObject': {}, 'id': 'cocktailshrimp', 'src': '/static/foodstim60/cocktailshrimp.jpg', 'key': 'i', 'origWidth': 410, 'origHeight': 410, 'width': 410, 'height': 410, 'widthPercent': 0.45, 'rescaleHeight': False, 'trialN': 89, 'loaded': True, 'loadedTime': 5771.100000023842, 'positionName': 'RIGHT', 'positionCoords': [1331.2, 515], 'bid': 1.07}]",136642.10000002384,1669837547406,lox,cocktailshrimp,2.14,1.07,-1.07,cocktailshrimp,1278.3999999761581,1279,1278.5999999642372,True,i,138434.10000002384,1792.0,1669837549198,1792,HRV,HRV_0261,2022-11-30 19:48:14
90,"[{'imgObject': {}, 'id': 'banana', 'src': '/static/foodstim60/banana.jpg', 'key': 'u', 'origWidth': 410, 'origHeight': 410, 'width': 410, 'height': 410, 'widthPercent': 0.45, 'rescaleHeight': False, 'trialN': 90, 'loaded': True, 'loadedTime': 5812.699999988079, 'positionName': 'LEFT', 'positionCoords': [818.8, 515], 'bid': 7.21}, {'imgObject': {}, 'id': 'bagel plain', 'src': '/static/foodstim60/bagel plain.jpg', 'key': 'i', 'origWidth': 410, 'origHeight': 410, 'width': 410, 'height': 410, 'widthPercent': 0.45, 'rescaleHeight': False, 'trialN': 90, 'loaded': True, 'loadedTime': 5822.5, 'positionName': 'RIGHT', 'positionCoords': [1331.2, 515], 'bid': 6.28}]",141882.0,1669837552646,banana,bagel plain,7.21,6.28,-0.9299999999999997,bagel plain,1659.0,1660,1659.300000011921,True,i,144055.5,2173.5,1669837554820,2174,HRV,HRV_0261,2022-11-30 19:48:14
91,"[{'imgObject': {}, 'id': 'orange slices', 'src': '/static/foodstim60/orange slices.jpg', 'key': 'u', 'origWidth': 409, 'origHeight': 410, 'width': 409, 'height': 410, 'widthPercent': 0.45, 'rescaleHeight': False, 'trialN': 91, 'loaded': True, 'loadedTime': 5231.600000023842, 'positionName': 'LEFT', 'positionCoords': [819.8, 515], 'bid': 6.8100000000000005}, {'imgObject': {}, 'id': 'cantaloupe', 'src': '/static/foodstim60/cantaloupe.jpg', 'key': 'i', 'origWidth': 409, 'origHeight': 409, 'width': 409, 'height': 409, 'widthPercent': 0.45, 'rescaleHeight': False, 'trialN': 91, 'loaded': True, 'loadedTime': 5800.600000023842, 'positionName': 'RIGHT', 'positionCoords': [1331.2, 515.5], 'bid': 7.77}]",144055.69999998808,1669837554820,orange slices,cantaloupe,6.8100000000000005,7.77,0.9599999999999991,cantaloupe,670.6999999880791,671,670.9000000357628,True,i,145234.19999998808,1178.5,1669837555999,1179,HRV,HRV_0261,2022-11-30 19:48:14
92,"[{'imgObject': {}, 'id': 'Tribe humus pita', 'src': '/static/foodstim60/Tribe humus pita.jpg', 'key': 'u', 'origWidth': 411, 'origHeight': 411, 'width': 411, 'height': 411, 'widthPercent': 0.45, 'rescaleHeight': False, 'trialN': 92, 'loaded': True, 'loadedTime': 5516.800000011921, 'positionName': 'LEFT', 'positionCoords': [817.8, 514.5], 'bid': 3.12}, {'imgObject': {}, 'id': 'sushi w_condiments', 'src': '/static/foodstim60/sushi w_condiments.jpg', 'key': 'i', 'origWidth': 410, 'origHeight': 410, 'width': 410, 'height': 410, 'widthPercent': 0.45, 'rescaleHeight': False, 'trialN': 92, 'loaded': True, 'loadedTime': 5791.699999988079, 'positionName': 'RIGHT', 'positionCoords': [1331.2, 515], 'bid': 0.45}]",145234.30000001192,1669837555999,Tribe humus pita,sushi w_condiments,3.12,0.45,-2.67,Tribe humus pita,1226.3999999761581,1226,1226.5,True,u,146981.60000002384,1747.300000011921,1669837557746,1747,HRV,HRV_0261,2022-11-30 19:48:14
93,"[{'imgObject': {}, 'id': 'salad w chicken', 'src': '/static/foodstim60/salad w chicken.jpg', 'key': 'u', 'origWidth': 411, 'origHeight': 411, 'width': 411, 'height': 411, 'widthPercent': 0.45, 'rescaleHeight': False, 'trialN': 93, 'loaded': True, 'loadedTime': 5689.899999976158, 'positionName': 'LEFT', 'positionCoords': [817.8, 514.5], 'bid': 7.5}, {'imgObject': {}, 'id': 'bagel and cc', 'src': '/static/foodstim60/bagel and cc.jpg', 'key': 'i', 'origWidth': 410, 'origHeight': 410, 'width': 410, 'height': 410, 'widthPercent': 0.45, 'rescaleHeight': False, 'trialN': 93, 'loaded': True, 'loadedTime': 4983.600000023842, 'positionName': 'RIGHT', 'positionCoords': [1331.2, 515], 'bid': 7.5}]",146981.69999998808,1669837557746,salad w chicken,bagel and cc,7.5,7.5,0.0,salad w chicken,683.8000000119209,684,684.0,True,u,148177.80000001192,1196.1000000238419,1669837558942,1196,HRV,HRV_0261,2022-11-30 19:48:14
94,"[{'imgObject': {}, 'id': 'avocado', 'src': '/static/foodstim60/avocado.jpg', 'key': 'u', 'origWidth': 409, 'origHeight': 409, 'width': 409, 'height': 409, 'widthPercent': 0.45, 'rescaleHeight': False, 'trialN': 94, 'loaded': True, 'loadedTime': 5800.600000023842, 'positionName': 'LEFT', 'positionCoords': [819.8, 515.5], 'bid': 7.67}, {'imgObject': {}, 'id': 'froot loops w milk', 'src': '/static/foodstim60/froot loops w milk.jpg', 'key': 'i', 'origWidth': 410, 'origHeight': 410, 'width': 410, 'height': 410, 'widthPercent': 0.45, 'rescaleHeight': False, 'trialN': 94, 'loaded': True, 'loadedTime': 5566.300000011921, 'positionName': 'RIGHT', 'positionCoords': [1331.2, 515], 'bid': 6.0200000000000005}]",148177.80000001192,1669837558942,avocado,froot loops w milk,7.67,6.0200000000000005,-1.6499999999999995,avocado,625.6999999880791,626,626.0,True,u,149314.80000001192,1137.0,1669837560079,1137,HRV,HRV_0261,2022-11-30 19:48:14
95,"[{'imgObject': {}, 'id': 'mango', 'src': '/static/foodstim60/mango.jpg', 'key': 'u', 'origWidth': 411, 'origHeight': 411, 'width': 411, 'height': 411, 'widthPercent': 0.45, 'rescaleHeight': False, 'trialN': 95, 'loaded': True, 'loadedTime': 5445.899999976158, 'positionName': 'LEFT', 'positionCoords': [817.8, 514.5], 'bid': 1.34}, {'imgObject': {}, 'id': 'cherries', 'src': '/static/foodstim60/cherries.jpg', 'key': 'i', 'origWidth': 410, 'origHeight': 411, 'width': 410, 'height': 411, 'widthPercent': 0.45, 'rescaleHeight': False, 'trialN': 95, 'loaded': True, 'loadedTime': 5718.600000023842, 'positionName': 'RIGHT', 'positionCoords': [1331.2, 514.5], 'bid': 1.1}]",149314.80000001192,1669837560079,mango,cherries,1.34,1.1,-0.24,cherries,710.3000000119209,711,710.3999999761581,True,i,150539.5,1224.699999988079,1669837561304,1225,HRV,HRV_0261,2022-11-30 19:48:14
96,"[{'imgObject': {}, 'id': 'shreddedwheatwithmilk', 'src': '/static/foodstim60/shreddedwheatwithmilk.jpg', 'key': 'u', 'origWidth': 410, 'origHeight': 410, 'width': 410, 'height': 410, 'widthPercent': 0.45, 'rescaleHeight': False, 'trialN': 96, 'loaded': True, 'loadedTime': 5809.899999976158, 'positionName': 'LEFT', 'positionCoords': [818.8, 515], 'bid': 7.38}, {'imgObject': {}, 'id': 'turkey sandwich', 'src': '/static/foodstim60/turkey sandwich.jpg', 'key': 'i', 'origWidth': 409, 'origHeight': 409, 'width': 409, 'height': 409, 'widthPercent': 0.45, 'rescaleHeight': False, 'trialN': 96, 'loaded': True, 'loadedTime': 5774.300000011921, 'positionName': 'RIGHT', 'positionCoords': [1331.2, 515.5], 'bid': 5.49}]",150539.60000002384,1669837561304,shreddedwheatwithmilk,turkey sandwich,7.38,5.49,-1.8899999999999997,turkey sandwich,808.5999999642372,809,808.7999999523163,True,i,151858.30000001192,1318.699999988079,1669837562623,1319,HRV,HRV_0261,2022-11-30 19:48:14
97,"[{'imgObject': {}, 'id': 'banana', 'src': '/static/foodstim60/banana.jpg', 'key': 'u', 'origWidth': 410, 'origHeight': 410, 'width': 410, 'height': 410, 'widthPercent': 0.45, 'rescaleHeight': False, 'trialN': 97, 'loaded': True, 'loadedTime': 5812.600000023842, 'positionName': 'LEFT', 'positionCoords': [818.8, 515], 'bid': 7.21}, {'imgObject': {}, 'id': 'fruitsalad', 'src': '/static/foodstim60/fruitsalad.jpg', 'key': 'i', 'origWidth': 410, 'origHeight': 410, 'width': 410, 'height': 410, 'widthPercent': 0.45, 'rescaleHeight': False, 'trialN': 97, 'loaded': True, 'loadedTime': 5602, 'positionName': 'RIGHT', 'positionCoords': [1331.2, 515], 'bid': 7.21}]",151858.39999997616,1669837562623,banana,fruitsalad,7.21,7.21,0.0,fruitsalad,713.4000000357628,713,713.6000000238419,True,i,153083.10000002384,1224.7000000476837,1669837563848,1225,HRV,HRV_0261,2022-11-30 19:48:14
98,"[{'imgObject': {}, 'id': 'eggs', 'src': '/static/foodstim60/eggs.jpg', 'key': 'u', 'origWidth': 409, 'origHeight': 409, 'width': 409, 'height': 409, 'widthPercent': 0.45, 'rescaleHeight': False, 'trialN': 98, 'loaded': True, 'loadedTime': 5348.300000011921, 'positionName': 'LEFT', 'positionCoords': [819.8, 515.5], 'bid': 2.76}, {'imgObject': {}, 'id': 'cocktailshrimp', 'src': '/static/foodstim60/cocktailshrimp.jpg', 'key': 'i', 'origWidth': 410, 'origHeight': 410, 'width': 410, 'height': 410, 'widthPercent': 0.45, 'rescaleHeight': False, 'trialN': 98, 'loaded': True, 'loadedTime': 5772.199999988079, 'positionName': 'RIGHT', 'positionCoords': [1331.2, 515], 'bid': 1.07}]",153083.30000001192,1669837563848,eggs,cocktailshrimp,2.76,1.07,-1.6899999999999997,eggs,1700.199999988079,1700,1700.5,True,u,155291.69999998808,2208.399999976158,1669837566056,2208,HRV,HRV_0261,2022-11-30 19:48:14
99,"[{'imgObject': {}, 'id': 'orange slices', 'src': '/static/foodstim60/orange slices.jpg', 'key': 'u', 'origWidth': 409, 'origHeight': 410, 'width': 409, 'height': 410, 'widthPercent': 0.45, 'rescaleHeight': False, 'trialN': 99, 'loaded': True, 'loadedTime': 5215.899999976158, 'positionName': 'LEFT', 'positionCoords': [819.8, 515], 'bid': 6.8100000000000005}, {'imgObject': {}, 'id': 'cheerios', 'src': '/static/foodstim60/cheerios.jpg', 'key': 'i', 'origWidth': 409, 'origHeight': 410, 'width': 409, 'height': 410, 'widthPercent': 0.45, 'rescaleHeight': False, 'trialN': 99, 'loaded': True, 'loadedTime': 5770.899999976158, 'positionName': 'RIGHT', 'positionCoords': [1331.2, 515], 'bid': 6.21}]",155291.80000001192,1669837566056,orange slices,cheerios,6.8100000000000005,6.21,-0.6000000000000005,cheerios,957.6999999880791,958,958.0,True,i,156754.39999997616,1462.5999999642372,1669837567519,1463,HRV,HRV_0261,2022-11-30 19:48:14
100,"[{'imgObject': {}, 'id': 'steak', 'src': '/static/foodstim60/steak.jpg', 'key': 'u', 'origWidth': 410, 'origHeight': 410, 'width': 410, 'height': 410, 'widthPercent': 0.45, 'rescaleHeight': False, 'trialN': 100, 'loaded': True, 'loadedTime': 5059.800000011921, 'positionName': 'LEFT', 'positionCoords': [818.8, 515], 'bid': 3.88}, {'imgObject': {}, 'id': 'luckycharms', 'src': '/static/foodstim60/luckycharms.jpg', 'key': 'i', 'origWidth': 410, 'origHeight': 409, 'width': 410, 'height': 409, 'widthPercent': 0.45, 'rescaleHeight': False, 'trialN': 100, 'loaded': True, 'loadedTime': 5147.600000023842, 'positionName': 'RIGHT', 'positionCoords': [1331.2, 515.5], 'bid': 3.83}]",156754.5,1669837567519,steak,luckycharms,3.88,3.83,-0.04999999999999982,steak,818.0,818,818.3999999761581,True,u,158088.30000001192,1333.800000011921,1669837568853,1334,HRV,HRV_0261,2022-11-30 19:48:14
101,"[{'imgObject': {}, 'id': 'luckycharms', 'src': '/static/foodstim60/luckycharms.jpg', 'key': 'u', 'origWidth': 410, 'origHeight': 409, 'width': 410, 'height': 409, 'widthPercent': 0.45, 'rescaleHeight': False, 'trialN': 101, 'loaded': True, 'loadedTime': 5147.100000023842, 'positionName': 'LEFT', 'positionCoords': [818.8, 515.5], 'bid': 3.83}, {'imgObject': {}, 'id': 'mango', 'src': '/static/foodstim60/mango.jpg', 'key': 'i', 'origWidth': 411, 'origHeight': 411, 'width': 411, 'height': 411, 'widthPercent': 0.45, 'rescaleHeight': False, 'trialN': 101, 'loaded': True, 'loadedTime': 5429.699999988079, 'positionName': 'RIGHT', 'positionCoords': [1331.2, 514.5], 'bid': 1.34}]",158088.5,1669837568853,luckycharms,mango,3.83,1.34,-2.49,mango,665.0,665,665.3000000119209,True,i,159262.19999998808,1173.699999988079,1669837570027,1174,HRV,HRV_0261,2022-11-30 19:48:14
102,"[{'imgObject': {}, 'id': 'strawberries', 'src': '/static/foodstim60/strawberries.jpg', 'key': 'u', 'origWidth': 410, 'origHeight': 410, 'width': 410, 'height': 410, 'widthPercent': 0.45, 'rescaleHeight': False, 'trialN': 102, 'loaded': True, 'loadedTime': 5098.399999976158, 'positionName': 'LEFT', 'positionCoords': [818.8, 515], 'bid': 5.95}, {'imgObject': {}, 'id': 'baked potato', 'src': '/static/foodstim60/baked potato.jpg', 'key': 'i', 'origWidth': 409, 'origHeight': 410, 'width': 409, 'height': 410, 'widthPercent': 0.45, 'rescaleHeight': False, 'trialN': 102, 'loaded': True, 'loadedTime': 5782.800000011921, 'positionName': 'RIGHT', 'positionCoords': [1331.2, 515], 'bid': 5.64}]",159262.30000001192,1669837570027,strawberries,baked potato,5.95,5.64,-0.3100000000000005,strawberries,1156.300000011921,1156,1156.5,True,u,160936.39999997616,1674.0999999642372,1669837571701,1674,HRV,HRV_0261,2022-11-30 19:48:14
103,"[{'imgObject': {}, 'id': 'mac & cheese', 'src': '/static/foodstim60/mac & cheese.jpg', 'key': 'u', 'origWidth': 410, 'origHeight': 410, 'width': 410, 'height': 410, 'widthPercent': 0.45, 'rescaleHeight': False, 'trialN': 103, 'loaded': True, 'loadedTime': 5538.100000023842, 'positionName': 'LEFT', 'positionCoords': [818.8, 515], 'bid': 9.46}, {'imgObject': {}, 'id': 'roastedpotatoes', 'src': '/static/foodstim60/roastedpotatoes.jpg', 'key': 'i', 'origWidth': 409, 'origHeight': 410, 'width': 409, 'height': 410, 'widthPercent': 0.45, 'rescaleHeight': False, 'trialN': 103, 'loaded': True, 'loadedTime': 5611.899999976158, 'positionName': 'RIGHT', 'positionCoords': [1331.2, 515], 'bid': 9.67}]",160936.60000002384,1669837571701,mac & cheese,roastedpotatoes,9.46,9.67,0.20999999999999908,mac & cheese,984.1999999880791,984,984.3999999761581,True,u,162425.80000001192,1489.199999988079,1669837573190,1489,HRV,HRV_0261,2022-11-30 19:48:14
104,"[{'imgObject': {}, 'id': 'orange slices', 'src': '/static/foodstim60/orange slices.jpg', 'key': 'u', 'origWidth': 409, 'origHeight': 410, 'width': 409, 'height': 410, 'widthPercent': 0.45, 'rescaleHeight': False, 'trialN': 104, 'loaded': True, 'loadedTime': 5231.899999976158, 'positionName': 'LEFT', 'positionCoords': [819.8, 515], 'bid': 6.8100000000000005}, {'imgObject': {}, 'id': 'apple slices', 'src': '/static/foodstim60/apple slices.jpg', 'key': 'i', 'origWidth': 409, 'origHeight': 410, 'width': 409, 'height': 410, 'widthPercent': 0.45, 'rescaleHeight': False, 'trialN': 104, 'loaded': True, 'loadedTime': 5429.5, 'positionName': 'RIGHT', 'positionCoords': [1331.2, 515], 'bid': 6.5}]",162426.10000002384,1669837573190,orange slices,apple slices,6.8100000000000005,6.5,-0.3100000000000005,orange slices,744.3999999761581,745,744.5999999642372,True,u,163683.89999997616,1257.7999999523163,1669837574448,1258,HRV,HRV_0261,2022-11-30 19:48:14
105,"[{'imgObject': {}, 'id': 'hotdog w must', 'src': '/static/foodstim60/hotdog w must.jpg', 'key': 'u', 'origWidth': 409, 'origHeight': 409, 'width': 409, 'height': 409, 'widthPercent': 0.45, 'rescaleHeight': False, 'trialN': 105, 'loaded': True, 'loadedTime': 5811.899999976158, 'positionName': 'LEFT', 'positionCoords': [819.8, 515.5], 'bid': 2.25}, {'imgObject': {}, 'id': 'yogurt no spoon', 'src': '/static/foodstim60/yogurt no spoon.jpg', 'key': 'i', 'origWidth': 411, 'origHeight': 410, 'width': 411, 'height': 410, 'widthPercent': 0.45, 'rescaleHeight': False, 'trialN': 105, 'loaded': True, 'loadedTime': 5755.100000023842, 'positionName': 'RIGHT', 'positionCoords': [1331.2, 515], 'bid': 3.95}]",163684.0,1669837574448,hotdog w must,yogurt no spoon,2.25,3.95,1.7000000000000002,yogurt no spoon,1926.5,1927,1926.699999988079,True,i,166124.5,2440.5,1669837576889,2441,HRV,HRV_0261,2022-11-30 19:48:14
106,"[{'imgObject': {}, 'id': 'bagel and cc', 'src': '/static/foodstim60/bagel and cc.jpg', 'key': 'u', 'origWidth': 410, 'origHeight': 410, 'width': 410, 'height': 410, 'widthPercent': 0.45, 'rescaleHeight': False, 'trialN': 106, 'loaded': True, 'loadedTime': 5001.600000023842, 'positionName': 'LEFT', 'positionCoords': [818.8, 515], 'bid': 7.5}, {'imgObject': {}, 'id': 'pear', 'src': '/static/foodstim60/pear.jpg', 'key': 'i', 'origWidth': 411, 'origHeight': 410, 'width': 411, 'height': 410, 'widthPercent': 0.45, 'rescaleHeight': False, 'trialN': 106, 'loaded': True, 'loadedTime': 5630.600000023842, 'positionName': 'RIGHT', 'positionCoords': [1331.2, 515], 'bid': 3.5}]",166124.60000002384,1669837576889,bagel and cc,pear,7.5,3.5,-4.0,bagel and cc,1204.0,1204,1204.2999999523163,True,u,167843.10000002384,1718.5,1669837578608,1719,HRV,HRV_0261,2022-11-30 19:48:14
107,"[{'imgObject': {}, 'id': 'chicken nuggets2', 'src': '/static/foodstim60/chicken nuggets2.jpg', 'key': 'u', 'origWidth': 410, 'origHeight': 409, 'width': 410, 'height': 409, 'widthPercent': 0.45, 'rescaleHeight': False, 'trialN': 107, 'loaded': True, 'loadedTime': 5658.300000011921, 'positionName': 'LEFT', 'positionCoords': [818.8, 515.5], 'bid': 7.59}, {'imgObject': {}, 'id': 'corn cob', 'src': '/static/foodstim60/corn cob.jpg', 'key': 'i', 'origWidth': 411, 'origHeight': 411, 'width': 411, 'height': 411, 'widthPercent': 0.45, 'rescaleHeight': False, 'trialN': 107, 'loaded': True, 'loadedTime': 4979, 'positionName': 'RIGHT', 'positionCoords': [1331.2, 514.5], 'bid': 5.98}]",167843.30000001192,1669837578608,chicken nuggets2,corn cob,7.59,5.98,-1.6099999999999994,chicken nuggets2,652.1999999880791,652,652.3999999761581,True,u,169010.5,1167.199999988079,1669837579775,1167,HRV,HRV_0261,2022-11-30 19:48:14
108,"[{'imgObject': {}, 'id': 'seaweed', 'src': '/static/foodstim60/seaweed.jpg', 'key': 'u', 'origWidth': 410, 'origHeight': 410, 'width': 410, 'height': 410, 'widthPercent': 0.45, 'rescaleHeight': False, 'trialN': 108, 'loaded': True, 'loadedTime': 5279.199999988079, 'positionName': 'LEFT', 'positionCoords': [818.8, 515], 'bid': 0.39}, {'imgObject': {}, 'id': 'hashbrowns', 'src': '/static/foodstim60/hashbrowns.jpg', 'key': 'i', 'origWidth': 411, 'origHeight': 410, 'width': 411, 'height': 410, 'widthPercent': 0.45, 'rescaleHeight': False, 'trialN': 108, 'loaded': True, 'loadedTime': 5359.800000011921, 'positionName': 'RIGHT', 'positionCoords': [1331.2, 515], 'bid': 0.59}]",169010.60000002384,1669837579775,seaweed,hashbrowns,0.39,0.59,0.19999999999999996,seaweed,2006.8999999761581,2007,2007.0999999642372,True,u,171533.60000002384,2523.0,1669837582298,2523,HRV,HRV_0261,2022-11-30 19:48:14
