success,trial_type,trial_index,time_elapsed,internal_node_id,Block,TrialNumber,TrialTime,trialTimeDiff,FPS_avg,FPS_med,FPS_mode,TrialDur,winResizeTime,rt,block,button_pressed,MotCoh,MotDir,ColCoh,Color,ChoiceKey,Choice,Accuracy,RT,nFrames,FPS,PPD,missTrial,missTrialMsg,onsetDelay,fullScreenExitTime,canvCenter,TrialType,Score,BlockTrial,stimulus,button_labels,exp,subjectId,date
True,fullscreen,0,6053,0.0-0.0,0.0,1.0,,,,,,,,,,,,,,,,,,,,,,,,,,,,,,,,HRV,HRV_0261,2022-11-30 19:59:21
,wl-check-fps,1,11041,0.0-1.0,0.0,2.0,"[6591.2, 6591.6, 6605.6, 6623.2, 6638.9, 6655.9, 6672.5, 6689.1, 6705.7, 6722.4, 6739.2, 6755.8, 6772.7, 6789.3, 6806, 6822.7, 6839.3, 6856, 6872.7, 6889.3, 6906, 6922.7, 6939.4, 6956.1, 6972.7, 6989.4, 7006, 7022.7, 7039.4, 7056.3, 7072.8, 7089.5, 7106.4, 7122.8, 7139.5, 7156.3, 7172.7, 7189.4, 7206.1, 7222.7, 7239.5, 7256.2, 7272.8, 7289.7, 7306.5, 7322.8, 7339.6, 7356.3, 7373.1, 7389.6, 7406.3, 7422.9, 7439.7, 7456.4, 7473, 7489.8, 7506.4, 7523.4, 7539.8, 7556.6, 7573.1, 7589.7, 7606.5, 7623.1, 7639.9, 7656.6, 7673.2, 7690, 7706.7, 7723.5, 7739.9, 7756.7, 7773.3, 7789.9, 7806.6, 7823.3, 7840, 7856.6, 7873.3, 7890.2, 7906.7, 7923.5, 7940.1, 7956.8, 7973.6, 7990.4, 8006.7, 8023.5, 8040.1, 8056.9, 8073.5, 8090.2, 8107, 8123.6, 8140.3, 8156.8, 8173.6, 8190.5, 8207, 8223.7, 8240.3, 8257.1, 8273.6, 8290.3, 8306.9, 8324, 8340.5, 8357.1, 8373.8, 8390.4, 8407.1, 8423.8, 8440.5, 8457.2, 8473.9, 8490.7, 8507.1, 8524, 8540.5, 8557.2, 8574.2, 8590.6, 8607.3, 8624, 8640.7, 8657.3, 8674.2, 8690.9, 8707.4, 8724, 8740.9, 8757.5, 8774.2, 8790.8, 8807.3, 8824.2, 8840.8, 8857.4, 8874.1, 8891, 8907.4, 8924.1, 8940.8, 8957.5, 8974.5, 8991, 9007.7, 9024.9, 9040.9, 9057.8, 9074.3, 9091.1, 9107.7, 9124.4, 9141.3, 9157.8, 9175.1, 9191.1, 9207.9, 9224.4, 9241, 9257.9, 9274.5, 9291.2, 9307.9, 9324.5, 9341.2, 9357.9, 9374.6, 9391.3, 9408, 9424.7, 9441.3, 9458, 9474.7, 9491.4, 9508.1, 9524.7, 9541.3, 9558.3, 9575.1, 9591.5, 9608.3, 9624.8, 9641.6, 9658.3, 9674.8, 9691.5, 9708.2, 9724.9, 9741.7, 9758.3, 9775.1, 9791.5, 9808.3, 9825, 9841.6, 9858.3, 9875, 9891.8, 9908.3, 9925, 9941.7, 9958.4, 9975.1, 9991.8, 10008.5, 10025.2, 10042, 10058.5, 10075.3, 10091.8, 10108.6, 10125.1, 10142, 10158.7, 10175.6, 10191.9, 10208.7, 10225.3, 10242.1, 10258.8, 10275.4, 10292, 10308.7, 10325.4, 10342.1, 10358.9, 10375.5, 10392.3, 10408.9, 10425.5, 10442.3, 10458.9, 10475.5, 10492.1, 10508.9, 10525.6, 10542.4, 10559.1, 10575.7, 10592.2, 10609, 10625.6, 10642.2, 10659.1, 10675.6, 10693.3, 10709, 10725.8, 10742.4, 10759.2, 10775.8, 10792.4, 10809.1, 10825.8, 10843.2, 10859.3, 10875.8, 10892.5, 10909.4, 10926.5, 10942.7, 10959.3, 10975.9, 10992.6, 11009.3, 11025.9, 11042.7, 11059.4, 11075.9, 11093.2, 11109.5, 11126, 11142.9, 11159.4, 11176.1, 11192.9, 11209.4, 11226.1, 11242.8, 11259.6, 11276.1, 11293.2, 11309.5, 11326.3, 11343.5, 11359.7, 11376.2, 11392.9, 11409.6, 11426.3, 11443, 11459.6, 11476.2, 11493, 11509.6, 11526.4, 11543.3, 11559.8]","[0.9, 0.4, 14, 17.6, 15.7, 17, 16.6, 16.6, 16.6, 16.7, 16.8, 16.6, 16.9, 16.6, 16.7, 16.7, 16.6, 16.7, 16.7, 16.6, 16.7, 16.7, 16.7, 16.7, 16.6, 16.7, 16.6, 16.7, 16.7, 16.9, 16.5, 16.7, 16.9, 16.4, 16.7, 16.8, 16.4, 16.7, 16.7, 16.6, 16.8, 16.7, 16.6, 16.9, 16.8, 16.3, 16.8, 16.7, 16.8, 16.5, 16.7, 16.6, 16.8, 16.7, 16.6, 16.8, 16.6, 17, 16.4, 16.8, 16.5, 16.6, 16.8, 16.6, 16.8, 16.7, 16.6, 16.8, 16.7, 16.8, 16.4, 16.8, 16.6, 16.6, 16.7, 16.7, 16.7, 16.6, 16.7, 16.9, 16.5, 16.8, 16.6, 16.7, 16.8, 16.8, 16.3, 16.8, 16.6, 16.8, 16.6, 16.7, 16.8, 16.6, 16.7, 16.5, 16.8, 16.9, 16.5, 16.7, 16.6, 16.8, 16.5, 16.7, 16.6, 17.1, 16.5, 16.6, 16.7, 16.6, 16.7, 16.7, 16.7, 16.7, 16.7, 16.8, 16.4, 16.9, 16.5, 16.7, 17, 16.4, 16.7, 16.7, 16.7, 16.6, 16.9, 16.7, 16.5, 16.6, 16.9, 16.6, 16.7, 16.6, 16.5, 16.9, 16.6, 16.6, 16.7, 16.9, 16.4, 16.7, 16.7, 16.7, 17, 16.5, 16.7, 17.2, 16, 16.9, 16.5, 16.8, 16.6, 16.7, 16.9, 16.5, 17.3, 16, 16.8, 16.5, 16.6, 16.9, 16.6, 16.7, 16.7, 16.6, 16.7, 16.7, 16.7, 16.7, 16.7, 16.7, 16.6, 16.7, 16.7, 16.7, 16.7, 16.6, 16.6, 17, 16.8, 16.4, 16.8, 16.5, 16.8, 16.7, 16.5, 16.7, 16.7, 16.7, 16.8, 16.6, 16.8, 16.4, 16.8, 16.7, 16.6, 16.7, 16.7, 16.8, 16.5, 16.7, 16.7, 16.7, 16.7, 16.7, 16.7, 16.7, 16.8, 16.5, 16.8, 16.5, 16.8, 16.5, 16.9, 16.7, 16.9, 16.3, 16.8, 16.6, 16.8, 16.7, 16.6, 16.6, 16.7, 16.7, 16.7, 16.8, 16.6, 16.8, 16.6, 16.6, 16.8, 16.6, 16.6, 16.6, 16.8, 16.7, 16.8, 16.7, 16.6, 16.5, 16.8, 16.6, 16.6, 16.9, 16.5, 17.7, 15.7, 16.8, 16.6, 16.8, 16.6, 16.6, 16.7, 16.7, 17.4, 16.1, 16.5, 16.7, 16.9, 17.1, 16.2, 16.6, 16.6, 16.7, 16.7, 16.6, 16.8, 16.7, 16.5, 17.3, 16.3, 16.5, 16.9, 16.5, 16.7, 16.8, 16.5, 16.7, 16.7, 16.8, 16.5, 17.1, 16.3, 16.8, 17.2, 16.2, 16.5, 16.7, 16.7, 16.7, 16.7, 16.6, 16.6, 16.8, 16.6, 16.8, 16.9, 16.5]",60.0,60.0,60.0,4986.1,[],,,,,,,,,,,,,,,,,,,,,,,,,HRV,HRV_0261,2022-11-30 19:59:21
,wl-html-keyboard-response,2,30151,0.0-2.0-0.0,0.0,3.0,,,,,,,,17095.5,0.0,0,,,,,,,,,,,,,,,,,,,,,,HRV,HRV_0261,2022-11-30 19:59:21
,wl-rdm,3,37846,0.0-3.0-0.0,0.0,4.0,,,,,,,[],,,,0.0,0.0,87.9,0.0,u,0.0,True,2127.900000035763,128.0,60.0,40.0,False,,3000.0,[],"[1280, 720]",ColorTask_Demo,,,,,HRV,HRV_0261,2022-11-30 19:59:21
,wl-rdm,4,43067,0.0-3.0-1.0,0.0,5.0,,,,,,,[],,,,0.0,0.0,87.9,1.0,i,1.0,True,1153.4000000357628,70.0,60.0,40.0,False,,2000.0,[],"[1280, 720]",ColorTask_Demo,,,,,HRV,HRV_0261,2022-11-30 19:59:21
,wl-html-keyboard-response,5,46998,0.0-3.0-2.0,0.0,6.0,,,,,,,,1924.1000000238419,0.0,1,,,,,,,,,,,,,,,,,,,,,,HRV,HRV_0261,2022-11-30 19:59:21
,wl-html-keyboard-response,6,55070,0.0-4.0-0.0,0.0,7.0,,,,,,,,6063.5,0.0,0,,,,,,,,,,,,,,,,,,,,,,HRV,HRV_0261,2022-11-30 19:59:21
,wl-html-keyboard-response,7,67166,0.0-5.0-0.0,0.0,8.0,,,,,,,,10093.100000023842,0.0,0,,,,,,,,,,,,,,,,,,,,,,HRV,HRV_0261,2022-11-30 19:59:21
,wl-rdm,8,70289,0.0-6.0-0.0,0.0,9.0,,,,,,,[],,,,,,62.5,1.0,i,1.0,True,1812.800000011921,109.0,60.0,40.0,False,,255.1882705588438,[],"[1280, 720]",ColorTask,1.0,1.0,,,HRV,HRV_0261,2022-11-30 19:59:21
,wl-rdm,9,73658,0.0-6.1-0.1,0.0,10.0,,,,,,,[],,,,,,50.0,1.0,u,0.0,False,2019.199999988079,122.0,60.0,40.0,False,,277.3032527789202,[],"[1280, 720]",ColorTask,0.0,2.0,,,HRV,HRV_0261,2022-11-30 19:59:21
,wl-rdm,10,76828,0.0-6.2-0.2,0.0,11.0,,,,,,,[],,,,,,56.4,1.0,u,0.0,False,1725.9000000357628,104.0,60.0,40.0,False,,380.71101679743083,[],"[1280, 720]",ColorTask,-1.0,3.0,,,HRV,HRV_0261,2022-11-30 19:59:21
,wl-rdm,11,79547,0.0-6.3-0.3,0.0,12.0,,,,,,,[],,,,,,50.0,0.0,i,1.0,False,1384.6000000238419,84.0,60.0,40.0,False,,254.8153028551236,[],"[1280, 720]",ColorTask,-2.0,4.0,,,HRV,HRV_0261,2022-11-30 19:59:21
,wl-rdm,12,82149,0.0-6.4-0.4,0.0,13.0,,,,,,,[],,,,,,73.6,0.0,u,0.0,True,1188.8999999761581,72.0,60.0,40.0,False,,333.8116602247789,[],"[1280, 720]",ColorTask,-1.0,5.0,,,HRV,HRV_0261,2022-11-30 19:59:21
,wl-rdm,13,84734,0.0-6.5-0.5,0.0,14.0,,,,,,,[],,,,,,87.9,0.0,u,0.0,True,1162.9000000357628,70.0,60.0,40.0,False,,360.08863879316175,[],"[1280, 720]",ColorTask,0.0,6.0,,,HRV,HRV_0261,2022-11-30 19:59:21
,wl-rdm,14,87387,0.0-6.6-0.6,0.0,15.0,,,,,,,[],,,,,,56.4,1.0,i,1.0,True,1382.199999988079,83.0,60.0,40.0,False,,207.90063693130895,[],"[1280, 720]",ColorTask,1.0,7.0,,,HRV,HRV_0261,2022-11-30 19:59:21
,wl-rdm,15,89589,0.0-6.7-0.7,0.0,16.0,,,,,,,[],,,,,,87.9,0.0,u,0.0,True,828.5,50.0,60.0,40.0,False,,316.4871090593816,[],"[1280, 720]",ColorTask,2.0,8.0,,,HRV,HRV_0261,2022-11-30 19:59:21
,wl-rdm,16,92174,0.0-6.8-0.8,0.0,17.0,,,,,,,[],,,,,,56.4,0.0,i,1.0,False,1222.3999999761581,74.0,60.0,40.0,False,,296.82791260782346,[],"[1280, 720]",ColorTask,1.0,9.0,,,HRV,HRV_0261,2022-11-30 19:59:21
,wl-rdm,17,94843,0.0-6.9-0.9,0.0,18.0,,,,,,,[],,,,,,56.4,1.0,i,1.0,True,1215.3999999761581,73.0,60.0,40.0,False,,389.16484968173495,[],"[1280, 720]",ColorTask,2.0,10.0,,,HRV,HRV_0261,2022-11-30 19:59:21
,wl-rdm,18,97863,0.0-6.10-0.10,0.0,19.0,,,,,,,[],,,,,,50.0,1.0,i,1.0,True,1699.7000000476837,102.0,60.0,40.0,False,,261.97540294947333,[],"[1280, 720]",ColorTask,3.0,11.0,,,HRV,HRV_0261,2022-11-30 19:59:21
,wl-rdm,19,100464,0.0-6.11-0.11,0.0,20.0,,,,,,,[],,,,,,62.5,1.0,i,1.0,True,1236.7000000476837,75.0,60.0,40.0,False,,287.45510670884556,[],"[1280, 720]",ColorTask,4.0,12.0,,,HRV,HRV_0261,2022-11-30 19:59:21
,wl-rdm,20,103200,0.0-6.12-0.12,0.0,21.0,,,,,,,[],,,,,,56.4,1.0,u,0.0,False,1376.5999999642372,83.0,60.0,40.0,False,,298.72537516442145,[],"[1280, 720]",ColorTask,3.0,13.0,,,HRV,HRV_0261,2022-11-30 19:59:21
,wl-rdm,21,105435,0.0-6.13-0.13,0.0,22.0,,,,,,,[],,,,,,62.5,0.0,u,0.0,True,951.5,58.0,60.0,40.0,False,,206.92653758918107,[],"[1280, 720]",ColorTask,4.0,14.0,,,HRV,HRV_0261,2022-11-30 19:59:21
,wl-rdm,22,108137,0.0-6.14-0.14,0.0,23.0,,,,,,,[],,,,,,56.4,0.0,u,0.0,True,1308.6000000238419,79.0,60.0,40.0,False,,333.46400482696816,[],"[1280, 720]",ColorTask,5.0,15.0,,,HRV,HRV_0261,2022-11-30 19:59:21
,wl-rdm,23,110890,0.0-6.15-0.15,0.0,24.0,,,,,,,[],,,,,,73.6,0.0,u,0.0,True,1469.9000000357628,89.0,60.0,40.0,False,,208.18920667428813,[],"[1280, 720]",ColorTask,6.0,16.0,,,HRV,HRV_0261,2022-11-30 19:59:21
,wl-rdm,24,113642,0.0-6.16-0.16,0.0,25.0,,,,,,,[],,,,,,73.6,1.0,i,1.0,True,1361.5,82.0,60.0,40.0,False,,329.2179071666375,[],"[1280, 720]",ColorTask,7.0,17.0,,,HRV,HRV_0261,2022-11-30 19:59:21
,wl-rdm,25,116828,0.0-6.17-0.17,0.0,26.0,,,,,,,[],,,,,,50.0,0.0,i,1.0,False,1855.300000011921,112.0,60.0,40.0,False,,253.5005606285941,[],"[1280, 720]",ColorTask,6.0,18.0,,,HRV,HRV_0261,2022-11-30 19:59:21
,wl-rdm,26,119097,0.0-6.18-0.18,0.0,27.0,,,,,,,[],,,,,,73.6,0.0,u,0.0,True,977.7999999523163,59.0,60.0,40.0,False,,221.95672091950553,[],"[1280, 720]",ColorTask,7.0,19.0,,,HRV,HRV_0261,2022-11-30 19:59:21
,wl-rdm,27,121148,0.0-6.19-0.19,0.0,28.0,,,,,,,[],,,,,,87.9,1.0,i,1.0,True,726.8000000119209,44.0,60.0,40.0,False,,259.9958517629899,[],"[1280, 720]",ColorTask,8.0,20.0,,,HRV,HRV_0261,2022-11-30 19:59:21
,wl-rdm,28,123700,0.0-6.20-0.20,0.0,29.0,,,,,,,[],,,,,,50.0,1.0,u,0.0,False,1255.5,76.0,60.0,40.0,False,,223.71196313203345,[],"[1280, 720]",ColorTask,7.0,21.0,,,HRV,HRV_0261,2022-11-30 19:59:21
,wl-rdm,29,125819,0.0-6.21-0.21,0.0,30.0,,,,,,,[],,,,,,53.2,0.0,u,0.0,True,801.5999999642372,49.0,60.0,40.0,False,,234.71135702775499,[],"[1280, 720]",ColorTask,8.0,22.0,,,HRV,HRV_0261,2022-11-30 19:59:21
,wl-rdm,30,127770,0.0-6.22-0.22,0.0,31.0,,,,,,,[],,,,,,73.6,1.0,i,1.0,True,671.6999999880791,41.0,60.0,40.0,False,,204.55072699386082,[],"[1280, 720]",ColorTask,9.0,23.0,,,HRV,HRV_0261,2022-11-30 19:59:21
,wl-rdm,31,130006,0.0-6.23-0.23,0.0,32.0,,,,,,,[],,,,,,56.4,1.0,i,1.0,True,925.5,56.0,60.0,40.0,False,,242.7529521487839,[],"[1280, 720]",ColorTask,10.0,24.0,,,HRV,HRV_0261,2022-11-30 19:59:21
,wl-rdm,32,132664,0.0-6.24-0.24,0.0,33.0,,,,,,,[],,,,,,56.4,0.0,u,0.0,True,1261.0,76.0,60.0,40.0,False,,324.40758737768056,[],"[1280, 720]",ColorTask,11.0,25.0,,,HRV,HRV_0261,2022-11-30 19:59:21
,wl-rdm,33,135460,0.0-6.25-0.25,0.0,34.0,,,,,,,[],,,,,,56.4,0.0,u,0.0,True,1498.300000011921,90.0,60.0,40.0,False,,237.75316539052224,[],"[1280, 720]",ColorTask,12.0,26.0,,,HRV,HRV_0261,2022-11-30 19:59:21
,wl-rdm,34,137829,0.0-6.26-0.26,0.0,35.0,,,,,,,[],,,,,,73.6,0.0,u,0.0,True,1094.800000011921,66.0,60.0,40.0,False,,208.43294163960354,[],"[1280, 720]",ColorTask,13.0,27.0,,,HRV,HRV_0261,2022-11-30 19:59:21
,wl-rdm,35,140431,0.0-6.27-0.27,0.0,36.0,,,,,,,[],,,,,,56.4,0.0,u,0.0,True,1228.0000000596046,74.0,60.0,40.0,False,,309.20677277483935,[],"[1280, 720]",ColorTask,14.0,28.0,,,HRV,HRV_0261,2022-11-30 19:59:21
,wl-rdm,36,143383,0.0-6.28-0.28,0.0,37.0,,,,,,,[],,,,,,50.0,0.0,i,1.0,False,1489.8999999761581,90.0,60.0,40.0,False,,392.959745910857,[],"[1280, 720]",ColorTask,13.0,29.0,,,HRV,HRV_0261,2022-11-30 19:59:21
,wl-rdm,37,146319,0.0-6.29-0.29,0.0,38.0,,,,,,,[],,,,,,50.0,1.0,u,0.0,False,1544.0999999642372,93.0,60.0,40.0,False,,328.43572095906285,[],"[1280, 720]",ColorTask,12.0,30.0,,,HRV,HRV_0261,2022-11-30 19:59:21
,wl-rdm,38,148638,0.0-6.30-0.30,0.0,39.0,,,,,,,[],,,,,,87.9,1.0,i,1.0,True,988.4000000357628,60.0,60.0,40.0,False,,250.62573116880992,[],"[1280, 720]",ColorTask,13.0,31.0,,,HRV,HRV_0261,2022-11-30 19:59:21
,wl-rdm,39,151207,0.0-6.31-0.31,0.0,40.0,,,,,,,[],,,,,,62.5,0.0,u,0.0,True,1252.9000000357628,76.0,60.0,40.0,False,,239.00004834654072,[],"[1280, 720]",ColorTask,14.0,32.0,,,HRV,HRV_0261,2022-11-30 19:59:21
,wl-rdm,40,153759,0.0-6.32-0.32,0.0,41.0,,,,,,,[],,,,,,53.2,0.0,u,0.0,True,1151.5,70.0,60.0,40.0,False,,324.8394374312247,[],"[1280, 720]",ColorTask,15.0,33.0,,,HRV,HRV_0261,2022-11-30 19:59:21
,wl-rdm,41,155977,0.0-6.33-0.33,0.0,42.0,,,,,,,[],,,,,,73.6,0.0,u,0.0,True,835.7000000476837,51.0,60.0,40.0,False,,303.3589605444478,[],"[1280, 720]",ColorTask,16.0,34.0,,,HRV,HRV_0261,2022-11-30 19:59:21
,wl-rdm,42,158329,0.0-6.34-0.34,0.0,43.0,,,,,,,[],,,,,,62.5,1.0,i,1.0,True,1022.2000000476837,62.0,60.0,40.0,False,,263.05463756359546,[],"[1280, 720]",ColorTask,17.0,35.0,,,HRV,HRV_0261,2022-11-30 19:59:21
,wl-rdm,43,161282,0.0-6.35-0.35,0.0,44.0,,,,,,,[],,,,,,62.5,1.0,i,1.0,True,1537.2999999523163,93.0,60.0,40.0,False,,337.75322379217226,[],"[1280, 720]",ColorTask,18.0,36.0,,,HRV,HRV_0261,2022-11-30 19:59:21
,wl-rdm,44,163684,0.0-6.36-0.36,0.0,45.0,,,,,,,[],,,,,,50.0,1.0,i,1.0,True,1090.800000011921,66.0,60.0,40.0,False,,246.8777089363723,[],"[1280, 720]",ColorTask,19.0,37.0,,,HRV,HRV_0261,2022-11-30 19:59:21
,wl-rdm,45,165886,0.0-6.37-0.37,0.0,46.0,,,,,,,[],,,,,,73.6,1.0,i,1.0,True,851.6000000238419,52.0,60.0,40.0,False,,271.34514532502914,[],"[1280, 720]",ColorTask,20.0,38.0,,,HRV,HRV_0261,2022-11-30 19:59:21
,wl-rdm,46,168037,0.0-6.38-0.38,0.0,47.0,,,,,,,[],,,,,,53.2,1.0,i,1.0,True,860.5,52.0,60.0,40.0,False,,227.641076715959,[],"[1280, 720]",ColorTask,21.0,39.0,,,HRV,HRV_0261,2022-11-30 19:59:21
,wl-rdm,47,170356,0.0-6.39-0.39,0.0,48.0,,,,,,,[],,,,,,50.0,0.0,u,0.0,True,1028.6999999284744,62.0,60.0,40.0,False,,233.3991242288766,[],"[1280, 720]",ColorTask,22.0,40.0,,,HRV,HRV_0261,2022-11-30 19:59:21
,wl-rdm,48,172691,0.0-6.40-0.40,0.0,49.0,,,,,,,[],,,,,,53.2,0.0,u,0.0,True,1012.5999999642372,61.0,60.0,40.0,False,,261.11793658872796,[],"[1280, 720]",ColorTask,23.0,41.0,,,HRV,HRV_0261,2022-11-30 19:59:21
,wl-rdm,49,175260,0.0-6.41-0.41,0.0,50.0,,,,,,,[],,,,,,62.5,0.0,u,0.0,True,1281.8999999761581,77.0,60.0,40.0,False,,219.83018641681466,[],"[1280, 720]",ColorTask,24.0,42.0,,,HRV,HRV_0261,2022-11-30 19:59:21
,wl-rdm,50,177412,0.0-6.42-0.42,0.0,51.0,,,,,,,[],,,,,,87.9,0.0,u,0.0,True,827.6000000238419,50.0,60.0,40.0,False,,253.09218248931538,[],"[1280, 720]",ColorTask,25.0,43.0,,,HRV,HRV_0261,2022-11-30 19:59:21
,wl-rdm,51,179613,0.0-6.43-0.43,0.0,52.0,,,,,,,[],,,,,,62.5,1.0,i,1.0,True,919.9000000357628,56.0,60.0,40.0,False,,205.36229996929742,[],"[1280, 720]",ColorTask,26.0,44.0,,,HRV,HRV_0261,2022-11-30 19:59:21
,wl-rdm,52,181849,0.0-6.44-0.44,0.0,53.0,,,,,,,[],,,,,,53.2,0.0,i,1.0,False,924.3000000119209,56.0,60.0,40.0,False,,249.8560559613761,[],"[1280, 720]",ColorTask,25.0,45.0,,,HRV,HRV_0261,2022-11-30 19:59:21
,wl-rdm,53,183918,0.0-6.45-0.45,0.0,54.0,,,,,,,[],,,,,,62.5,1.0,i,1.0,True,693.0,42.0,60.0,40.0,False,,314.1006301730461,[],"[1280, 720]",ColorTask,26.0,46.0,,,HRV,HRV_0261,2022-11-30 19:59:21
,wl-rdm,54,186186,0.0-6.46-0.46,0.0,55.0,,,,,,,[],,,,,,53.2,1.0,i,1.0,True,935.4000000357628,57.0,60.0,40.0,False,,260.7250888988911,[],"[1280, 720]",ColorTask,27.0,47.0,,,HRV,HRV_0261,2022-11-30 19:59:21
,wl-rdm,55,189138,0.0-6.47-0.47,0.0,56.0,,,,,,,[],,,,,,50.0,0.0,i,1.0,False,1587.6000000238419,96.0,60.0,40.0,False,,299.1132833220779,[],"[1280, 720]",ColorTask,26.0,48.0,,,HRV,HRV_0261,2022-11-30 19:59:21
,wl-rdm,56,191774,0.0-6.48-0.48,0.0,57.0,,,,,,,[],,,,,,56.4,1.0,u,0.0,False,1296.9000000357628,78.0,60.0,40.0,False,,278.68471009435314,[],"[1280, 720]",ColorTask,25.0,49.0,,,HRV,HRV_0261,2022-11-30 19:59:21
,wl-rdm,57,195026,0.0-6.49-0.49,0.0,58.0,,,,,,,[],,,,,,50.0,0.0,i,1.0,False,1909.199999988079,115.0,60.0,40.0,False,,277.90622030099314,[],"[1280, 720]",ColorTask,24.0,50.0,,,HRV,HRV_0261,2022-11-30 19:59:21
,wl-rdm,58,198246,0.0-6.50-0.50,0.0,59.0,,,,,,,[],,,,,,53.2,0.0,u,0.0,True,1945.2000000476837,117.0,60.0,40.0,False,,211.45542575683695,[],"[1280, 720]",ColorTask,25.0,51.0,,,HRV,HRV_0261,2022-11-30 19:59:21
,wl-rdm,59,201398,0.0-6.51-0.51,0.0,60.0,,,,,,,[],,,,,,56.4,0.0,i,1.0,False,1715.5,103.0,60.0,40.0,False,,373.1660778820295,[],"[1280, 720]",ColorTask,24.0,52.0,,,HRV,HRV_0261,2022-11-30 19:59:21
,wl-rdm,60,204734,0.0-6.52-0.52,0.0,61.0,,,,,,,[],,,,,,62.5,0.0,u,0.0,True,2046.5,123.0,60.0,40.0,False,,218.7507193201866,[],"[1280, 720]",ColorTask,25.0,53.0,,,HRV,HRV_0261,2022-11-30 19:59:21
,wl-rdm,61,207319,0.0-6.53-0.53,0.0,62.0,,,,,,,[],,,,,,62.5,1.0,i,1.0,True,1221.199999988079,74.0,60.0,40.0,False,,299.38366796659454,[],"[1280, 720]",ColorTask,26.0,54.0,,,HRV,HRV_0261,2022-11-30 19:59:21
,wl-rdm,62,209938,0.0-6.54-0.54,0.0,63.0,,,,,,,[],,,,,,56.4,1.0,i,1.0,True,1163.199999988079,70.0,60.0,40.0,False,,387.1548682058226,[],"[1280, 720]",ColorTask,27.0,55.0,,,HRV,HRV_0261,2022-11-30 19:59:21
,wl-rdm,63,212340,0.0-6.55-0.55,0.0,64.0,,,,,,,[],,,,,,73.6,0.0,u,0.0,True,1054.199999988079,64.0,60.0,40.0,False,,277.52084789878927,[],"[1280, 720]",ColorTask,28.0,56.0,,,HRV,HRV_0261,2022-11-30 19:59:21
,wl-rdm,64,215009,0.0-6.56-0.56,0.0,65.0,,,,,,,[],,,,,,53.2,1.0,i,1.0,True,1343.4000000357628,81.0,60.0,40.0,False,,261.2966424301222,[],"[1280, 720]",ColorTask,29.0,57.0,,,HRV,HRV_0261,2022-11-30 19:59:21
,wl-rdm,65,217227,0.0-6.57-0.57,0.0,66.0,,,,,,,[],,,,,,73.6,0.0,u,0.0,True,788.0,48.0,60.0,40.0,False,,350.73178364517,[],"[1280, 720]",ColorTask,30.0,58.0,,,HRV,HRV_0261,2022-11-30 19:59:21
,wl-rdm,66,219629,0.0-6.58-0.58,0.0,67.0,,,,,,,[],,,,,,56.4,1.0,i,1.0,True,1052.0999999642372,64.0,60.0,40.0,False,,270.75860430514354,[],"[1280, 720]",ColorTask,31.0,59.0,,,HRV,HRV_0261,2022-11-30 19:59:21
,wl-rdm,67,222081,0.0-6.59-0.59,0.0,68.0,,,,,,,[],,,,,,73.6,0.0,u,0.0,True,1172.9000000357628,71.0,60.0,40.0,False,,203.1916873876693,[],"[1280, 720]",ColorTask,32.0,60.0,,,HRV,HRV_0261,2022-11-30 19:59:21
,wl-rdm,68,224566,0.0-6.60-0.60,0.0,69.0,,,,,,,[],,,,,,53.2,1.0,i,1.0,True,1203.699999988079,73.0,60.0,40.0,False,,207.56190920814709,[],"[1280, 720]",ColorTask,33.0,61.0,,,HRV,HRV_0261,2022-11-30 19:59:21
,wl-rdm,69,227285,0.0-6.61-0.61,0.0,70.0,,,,,,,[],,,,,,62.5,0.0,u,0.0,True,1450.0,87.0,60.0,40.0,False,,212.60173871350344,[],"[1280, 720]",ColorTask,34.0,62.0,,,HRV,HRV_0261,2022-11-30 19:59:21
,wl-rdm,70,229838,0.0-6.62-0.62,0.0,71.0,,,,,,,[],,,,,,73.6,1.0,i,1.0,True,1153.6999999284744,70.0,60.0,40.0,False,,318.7802705544465,[],"[1280, 720]",ColorTask,35.0,63.0,,,HRV,HRV_0261,2022-11-30 19:59:21
,wl-rdm,71,232673,0.0-6.63-0.63,0.0,72.0,,,,,,,[],,,,,,50.0,1.0,i,1.0,True,1427.699999988079,86.0,60.0,40.0,False,,335.4774960459051,[],"[1280, 720]",ColorTask,36.0,64.0,,,HRV,HRV_0261,2022-11-30 19:59:21
,wl-rdm,72,235509,0.0-6.64-0.64,0.0,73.0,,,,,,,[],,,,,,50.0,0.0,i,1.0,False,1417.699999988079,85.0,60.0,40.0,False,,354.20801028972863,[],"[1280, 720]",ColorTask,35.0,65.0,,,HRV,HRV_0261,2022-11-30 19:59:21
,wl-rdm,73,238478,0.0-6.65-0.65,0.0,74.0,,,,,,,[],,,,,,56.4,0.0,u,0.0,True,1649.699999988079,99.0,60.0,40.0,False,,250.341293931503,[],"[1280, 720]",ColorTask,36.0,66.0,,,HRV,HRV_0261,2022-11-30 19:59:21
,wl-rdm,74,241531,0.0-6.66-0.66,0.0,75.0,,,,,,,[],,,,,,62.5,0.0,u,0.0,True,1620.699999988079,98.0,60.0,40.0,False,,352.6296791886557,[],"[1280, 720]",ColorTask,37.0,67.0,,,HRV,HRV_0261,2022-11-30 19:59:21
,wl-rdm,75,243666,0.0-6.67-0.67,0.0,76.0,,,,,,,[],,,,,,87.9,0.0,u,0.0,True,706.3000000119209,43.0,60.0,40.0,False,,351.1224655654986,[],"[1280, 720]",ColorTask,38.0,68.0,,,HRV,HRV_0261,2022-11-30 19:59:21
,wl-rdm,76,246501,0.0-6.68-0.68,0.0,77.0,,,,,,,[],,,,,,50.0,1.0,i,1.0,True,1558.199999988079,94.0,60.0,40.0,False,,215.39148511128116,[],"[1280, 720]",ColorTask,39.0,69.0,,,HRV,HRV_0261,2022-11-30 19:59:21
,wl-rdm,77,249020,0.0-6.69-0.69,0.0,78.0,,,,,,,[],,,,,,73.6,1.0,i,1.0,True,1079.699999988079,65.0,60.0,40.0,False,,377.15732202498845,[],"[1280, 720]",ColorTask,40.0,70.0,,,HRV,HRV_0261,2022-11-30 19:59:21
,wl-rdm,78,251439,0.0-6.70-0.70,0.0,79.0,,,,,,,[],,,,,,62.5,0.0,u,0.0,True,1049.8999999761581,63.0,60.0,40.0,False,,312.75036741240353,[],"[1280, 720]",ColorTask,41.0,71.0,,,HRV,HRV_0261,2022-11-30 19:59:21
,wl-rdm,79,253591,0.0-6.71-0.71,0.0,80.0,,,,,,,[],,,,,,87.9,0.0,u,0.0,True,688.9000000357628,42.0,60.0,40.0,False,,394.364358014798,[],"[1280, 720]",ColorTask,42.0,72.0,,,HRV,HRV_0261,2022-11-30 19:59:21
,wl-rdm,80,255575,0.0-6.72-0.72,0.0,81.0,,,,,,,[],,,,,,87.9,0.0,u,0.0,True,676.8000000119209,41.0,60.0,40.0,False,,233.6090583934095,[],"[1280, 720]",ColorTask,43.0,73.0,,,HRV,HRV_0261,2022-11-30 19:59:21
,wl-rdm,81,257610,0.0-6.73-0.73,0.0,82.0,,,,,,,[],,,,,,87.9,0.0,u,0.0,True,696.3000000119209,42.0,60.0,40.0,False,,281.2738187153179,[],"[1280, 720]",ColorTask,44.0,74.0,,,HRV,HRV_0261,2022-11-30 19:59:21
,wl-rdm,82,259662,0.0-6.74-0.74,0.0,83.0,,,,,,,[],,,,,,62.5,1.0,i,1.0,True,775.3999999761581,47.0,60.0,40.0,False,,206.8139252706899,[],"[1280, 720]",ColorTask,45.0,75.0,,,HRV,HRV_0261,2022-11-30 19:59:21
,wl-rdm,83,261597,0.0-6.75-0.75,0.0,84.0,,,,,,,[],,,,,,87.9,1.0,i,1.0,True,640.6000000238419,39.0,60.0,40.0,False,,222.478023191212,[],"[1280, 720]",ColorTask,46.0,76.0,,,HRV,HRV_0261,2022-11-30 19:59:21
,wl-rdm,84,263566,0.0-6.76-0.76,0.0,85.0,,,,,,,[],,,,,,87.9,1.0,i,1.0,True,564.4000000357628,34.0,60.0,40.0,False,,348.23816353068673,[],"[1280, 720]",ColorTask,47.0,77.0,,,HRV,HRV_0261,2022-11-30 19:59:21
,wl-rdm,85,266218,0.0-6.77-0.77,0.0,86.0,,,,,,,[],,,,,,56.4,1.0,i,1.0,True,1260.8999999761581,76.0,60.0,40.0,False,,322.58243809337864,[],"[1280, 720]",ColorTask,48.0,78.0,,,HRV,HRV_0261,2022-11-30 19:59:21
,wl-rdm,86,269354,0.0-6.78-0.78,0.0,87.0,,,,,,,[],,,,,,53.2,1.0,i,1.0,True,1791.300000011921,108.0,60.0,40.0,False,,278.3217182818547,[],"[1280, 720]",ColorTask,49.0,79.0,,,HRV,HRV_0261,2022-11-30 19:59:21
,wl-rdm,87,272190,0.0-6.79-0.79,0.0,88.0,,,,,,,[],,,,,,53.2,0.0,i,1.0,False,1478.5,89.0,60.0,40.0,False,,297.9891383552321,[],"[1280, 720]",ColorTask,48.0,80.0,,,HRV,HRV_0261,2022-11-30 19:59:21
,wl-rdm,88,274425,0.0-6.80-0.80,0.0,89.0,,,,,,,[],,,,,,73.6,0.0,u,0.0,True,923.0999999642372,56.0,60.0,40.0,False,,248.96693633962616,[],"[1280, 720]",ColorTask,49.0,81.0,,,HRV,HRV_0261,2022-11-30 19:59:21
,wl-rdm,89,276427,0.0-6.81-0.81,0.0,90.0,,,,,,,[],,,,,,73.6,1.0,i,1.0,True,641.1999999880791,39.0,60.0,40.0,False,,288.5363682797568,[],"[1280, 720]",ColorTask,50.0,82.0,,,HRV,HRV_0261,2022-11-30 19:59:21
,wl-rdm,90,278311,0.0-6.82-0.82,0.0,91.0,,,,,,,[],,,,,,73.6,1.0,i,1.0,True,578.3999999761581,35.0,60.0,40.0,False,,236.49438157490806,[],"[1280, 720]",ColorTask,51.0,83.0,,,HRV,HRV_0261,2022-11-30 19:59:21
,wl-rdm,91,281181,0.0-6.83-0.83,0.0,92.0,,,,,,,[],,,,,,50.0,1.0,i,1.0,True,1516.300000011921,91.0,60.0,40.0,False,,299.3619785098769,[],"[1280, 720]",ColorTask,52.0,84.0,,,HRV,HRV_0261,2022-11-30 19:59:21
,wl-rdm,92,283266,0.0-6.84-0.84,0.0,93.0,,,,,,,[],,,,,,62.5,1.0,i,1.0,True,665.6000000238419,40.0,60.0,40.0,False,,364.75663541385734,[],"[1280, 720]",ColorTask,53.0,85.0,,,HRV,HRV_0261,2022-11-30 19:59:21
,wl-rdm,93,285184,0.0-6.85-0.85,0.0,94.0,,,,,,,[],,,,,,87.9,0.0,u,0.0,True,642.8000000119209,39.0,60.0,40.0,False,,211.66351654385244,[],"[1280, 720]",ColorTask,54.0,86.0,,,HRV,HRV_0261,2022-11-30 19:59:21
,wl-rdm,94,287602,0.0-6.86-0.86,0.0,95.0,,,,,,,[],,,,,,87.9,1.0,i,1.0,True,1091.800000011921,66.0,60.0,40.0,False,,263.73018504095575,[],"[1280, 720]",ColorTask,55.0,87.0,,,HRV,HRV_0261,2022-11-30 19:59:21
,wl-rdm,95,290738,0.0-6.87-0.87,0.0,96.0,,,,,,,[],,,,,,56.4,0.0,i,1.0,False,1770.0999999642372,107.0,60.0,40.0,False,,288.4025111508431,[],"[1280, 720]",ColorTask,54.0,88.0,,,HRV,HRV_0261,2022-11-30 19:59:21
,wl-rdm,96,293207,0.0-6.88-0.88,0.0,97.0,,,,,,,[],,,,,,87.9,0.0,u,0.0,True,1102.0,67.0,60.0,40.0,False,,299.12409125386114,[],"[1280, 720]",ColorTask,55.0,89.0,,,HRV,HRV_0261,2022-11-30 19:59:21
,wl-rdm,97,295859,0.0-6.89-0.89,0.0,98.0,,,,,,,[],,,,,,53.2,1.0,i,1.0,True,1277.1000000238419,77.0,60.0,40.0,False,,307.51707585720345,[],"[1280, 720]",ColorTask,56.0,90.0,,,HRV,HRV_0261,2022-11-30 19:59:21
,wl-rdm,98,299279,0.0-6.90-0.90,0.0,99.0,,,,,,,[],,,,,,53.2,1.0,i,1.0,True,2115.800000011921,127.0,60.0,40.0,False,,247.94954625491513,[],"[1280, 720]",ColorTask,57.0,91.0,,,HRV,HRV_0261,2022-11-30 19:59:21
,wl-rdm,99,301481,0.0-6.91-0.91,0.0,100.0,,,,,,,[],,,,,,73.6,1.0,i,1.0,True,813.6999999880791,49.0,60.0,40.0,False,,328.45429737455925,[],"[1280, 720]",ColorTask,58.0,92.0,,,HRV,HRV_0261,2022-11-30 19:59:21
,wl-rdm,100,304316,0.0-6.92-0.92,0.0,101.0,,,,,,,[],,,,,,62.5,0.0,i,1.0,False,1407.5,85.0,60.0,40.0,False,,364.3803112502983,[],"[1280, 720]",ColorTask,57.0,93.0,,,HRV,HRV_0261,2022-11-30 19:59:21
,wl-rdm,101,307369,0.0-6.93-0.93,0.0,102.0,,,,,,,[],,,,,,53.2,1.0,u,0.0,False,1689.3999999761581,102.0,60.0,40.0,False,,298.57252310896814,[],"[1280, 720]",ColorTask,56.0,94.0,,,HRV,HRV_0261,2022-11-30 19:59:21
,wl-rdm,102,310922,0.0-6.94-0.94,0.0,103.0,,,,,,,[],,,,,,53.2,1.0,i,1.0,True,2094.100000023842,126.0,60.0,40.0,False,,389.8053032121285,[],"[1280, 720]",ColorTask,57.0,95.0,,,HRV,HRV_0261,2022-11-30 19:59:21
,wl-rdm,103,312940,0.0-6.95-0.95,0.0,104.0,,,,,,,[],,,,,,50.0,0.0,i,1.0,False,742.0,45.0,60.0,40.0,False,,209.14652570653155,[],"[1280, 720]",ColorTask,56.0,96.0,,,HRV,HRV_0261,2022-11-30 19:59:21
,wl-rdm,104,314942,0.0-6.96-0.96,0.0,105.0,,,,,,,[],,,,,,87.9,1.0,i,1.0,True,668.8999999761581,41.0,60.0,40.0,False,,260.3310801863774,[],"[1280, 720]",ColorTask,57.0,97.0,,,HRV,HRV_0261,2022-11-30 19:59:21
,wl-rdm,105,319179,0.0-6.97-0.97,0.0,106.0,,,,,,,[],,,,,,53.2,0.0,u,0.0,True,2865.5,172.0,60.0,40.0,False,,303.6554512515006,[],"[1280, 720]",ColorTask,58.0,98.0,,,HRV,HRV_0261,2022-11-30 19:59:21
,wl-rdm,106,321264,0.0-6.98-0.98,0.0,107.0,,,,,,,[],,,,,,87.9,1.0,i,1.0,True,664.8000000715256,40.0,60.0,40.0,False,,354.7263616975804,[],"[1280, 720]",ColorTask,59.0,99.0,,,HRV,HRV_0261,2022-11-30 19:59:21
,wl-rdm,107,323516,0.0-6.99-0.99,0.0,108.0,,,,,,,[],,,,,,73.6,1.0,i,1.0,True,887.3999999761581,54.0,60.0,40.0,False,,290.4856992892115,[],"[1280, 720]",ColorTask,60.0,100.0,,,HRV,HRV_0261,2022-11-30 19:59:21
,wl-rdm,108,327335,0.0-6.100-0.100,0.0,109.0,,,,,,,[],,,,,,50.0,1.0,i,1.0,True,2474.900000035763,149.0,60.0,40.0,False,,279.3550351907199,[],"[1280, 720]",ColorTask,61.0,101.0,,,HRV,HRV_0261,2022-11-30 19:59:21
,wl-rdm,109,329337,0.0-6.101-0.101,0.0,110.0,,,,,,,[],,,,,,87.9,1.0,i,1.0,True,636.3000000119209,39.0,60.0,40.0,False,,298.4826102255489,[],"[1280, 720]",ColorTask,62.0,102.0,,,HRV,HRV_0261,2022-11-30 19:59:21
,wl-rdm,110,331905,0.0-6.102-0.102,0.0,111.0,,,,,,,[],,,,,,62.5,0.0,u,0.0,True,1180.800000011921,71.0,60.0,40.0,False,,325.63755827149055,[],"[1280, 720]",ColorTask,63.0,103.0,,,HRV,HRV_0261,2022-11-30 19:59:21
,wl-rdm,111,334024,0.0-6.103-0.103,0.0,112.0,,,,,,,[],,,,,,87.9,1.0,i,1.0,True,781.8000000119209,47.0,60.0,40.0,False,,278.1460978521164,[],"[1280, 720]",ColorTask,64.0,104.0,,,HRV,HRV_0261,2022-11-30 19:59:21
,wl-rdm,112,336826,0.0-6.104-0.104,0.0,113.0,,,,,,,[],,,,,,53.2,0.0,u,0.0,True,1469.800000011921,89.0,60.0,40.0,False,,264.1816138365204,[],"[1280, 720]",ColorTask,65.0,105.0,,,HRV,HRV_0261,2022-11-30 19:59:21
,wl-rdm,113,339712,0.0-6.105-0.105,0.0,114.0,,,,,,,[],,,,,,53.2,0.0,u,0.0,True,1474.1000000238419,89.0,60.0,40.0,False,,334.74247908937184,[],"[1280, 720]",ColorTask,66.0,106.0,,,HRV,HRV_0261,2022-11-30 19:59:21
,wl-rdm,114,343248,0.0-6.106-0.106,0.0,115.0,,,,,,,[],,,,,,50.0,0.0,i,1.0,False,2174.900000035763,131.0,60.0,40.0,False,,286.14785325345866,[],"[1280, 720]",ColorTask,65.0,107.0,,,HRV,HRV_0261,2022-11-30 19:59:21
,wl-rdm,115,347618,0.0-6.107-0.107,0.0,115.0,,,,,,,[],,,,,,56.4,0.0,i,,,3148.2000000476837,179.0,60.0,40.0,True,RT_timeout ,284.8330867721185,[],"[1280, 720]",ColorTask,64.0,108.0,,,HRV,HRV_0261,2022-11-30 19:59:21
,wl-rdm,116,350254,0.0-6.108-0.108,0.0,116.0,,,,,,,[],,,,,,56.4,0.0,u,0.0,True,1265.0999999642372,76.0,60.0,40.0,False,,308.7895118167344,[],"[1280, 720]",ColorTask,65.0,109.0,,,HRV,HRV_0261,2022-11-30 19:59:21
,wl-html-keyboard-response,117,395038,0.0-7.0-0.0,1.0,117.0,,,,,,,,42778.39999997616,1.0,0,,,,,,,,,,,,,,,,,,,,,,HRV,HRV_0261,2022-11-30 19:59:21
,wl-rdm,118,397710,0.0-8.0-0.0,1.0,118.0,,,,,,,[],,,,,,56.4,0.0,u,0.0,True,1391.7999999523163,84.0,60.0,40.0,False,,224.36062647629814,[],"[1280, 720]",ColorTask,66.0,1.0,,,HRV,HRV_0261,2022-11-30 19:59:21
,wl-rdm,119,399779,0.0-8.1-0.1,1.0,119.0,,,,,,,[],,,,,,87.9,0.0,u,0.0,True,611.0,37.0,60.0,40.0,False,,388.7011051986516,[],"[1280, 720]",ColorTask,67.0,2.0,,,HRV,HRV_0261,2022-11-30 19:59:21
,wl-rdm,120,402464,0.0-8.2-0.2,1.0,120.0,,,,,,,[],,,,,,56.4,0.0,u,0.0,True,1328.0,80.0,60.0,40.0,False,,294.20324114367247,[],"[1280, 720]",ColorTask,68.0,3.0,,,HRV,HRV_0261,2022-11-30 19:59:21
,wl-rdm,121,405166,0.0-8.3-0.3,1.0,121.0,,,,,,,[],,,,,,56.4,1.0,i,1.0,True,1290.7000000476837,78.0,60.0,40.0,False,,349.894434028254,[],"[1280, 720]",ColorTask,69.0,4.0,,,HRV,HRV_0261,2022-11-30 19:59:21
,wl-rdm,122,407518,0.0-8.4-0.4,1.0,122.0,,,,,,,[],,,,,,73.6,0.0,u,0.0,True,1026.5,62.0,60.0,40.0,False,,260.97167326922147,[],"[1280, 720]",ColorTask,70.0,5.0,,,HRV,HRV_0261,2022-11-30 19:59:21
,wl-rdm,123,410321,0.0-8.5-0.5,1.0,123.0,,,,,,,[],,,,,,50.0,1.0,u,0.0,False,1399.199999988079,84.0,60.0,40.0,False,,346.61024379554414,[],"[1280, 720]",ColorTask,69.0,6.0,,,HRV,HRV_0261,2022-11-30 19:59:21
,wl-rdm,124,413190,0.0-8.6-0.6,1.0,124.0,,,,,,,[],,,,,,62.5,0.0,u,0.0,True,1420.6000000238419,86.0,60.0,40.0,False,,367.4649808005409,[],"[1280, 720]",ColorTask,70.0,7.0,,,HRV,HRV_0261,2022-11-30 19:59:21
,wl-rdm,125,415692,0.0-8.7-0.7,1.0,125.0,,,,,,,[],,,,,,53.2,0.0,i,1.0,False,1175.6000000238419,71.0,60.0,40.0,False,,250.42643593938263,[],"[1280, 720]",ColorTask,69.0,8.0,,,HRV,HRV_0261,2022-11-30 19:59:21
,wl-rdm,126,418644,0.0-8.8-0.8,1.0,126.0,,,,,,,[],,,,,,56.4,0.0,i,1.0,False,1614.5,97.0,60.0,40.0,False,,279.54387144346185,[],"[1280, 720]",ColorTask,68.0,9.0,,,HRV,HRV_0261,2022-11-30 19:59:21
,wl-rdm,127,420729,0.0-8.9-0.9,1.0,127.0,,,,,,,[],,,,,,73.6,0.0,u,0.0,True,690.0999999642372,42.0,60.0,40.0,False,,328.7223534389791,[],"[1280, 720]",ColorTask,69.0,10.0,,,HRV,HRV_0261,2022-11-30 19:59:21
,wl-rdm,128,422647,0.0-8.10-0.10,1.0,128.0,,,,,,,[],,,,,,73.6,1.0,i,1.0,True,643.6000000238419,39.0,60.0,40.0,False,,205.08898969209739,[],"[1280, 720]",ColorTask,70.0,11.0,,,HRV,HRV_0261,2022-11-30 19:59:21
,wl-rdm,129,424666,0.0-8.11-0.11,1.0,129.0,,,,,,,[],,,,,,87.9,0.0,u,0.0,True,747.0,45.0,60.0,40.0,False,,201.298800295911,[],"[1280, 720]",ColorTask,71.0,12.0,,,HRV,HRV_0261,2022-11-30 19:59:21
,wl-rdm,130,426951,0.0-8.12-0.12,1.0,130.0,,,,,,,[],,,,,,53.2,1.0,i,1.0,True,937.6000000238419,57.0,60.0,40.0,False,,272.05750650303656,[],"[1280, 720]",ColorTask,72.0,13.0,,,HRV,HRV_0261,2022-11-30 19:59:21
,wl-rdm,131,428836,0.0-8.13-0.13,1.0,131.0,,,,,,,[],,,,,,87.9,1.0,i,1.0,True,578.0,35.0,60.0,40.0,False,,223.22742619949054,[],"[1280, 720]",ColorTask,73.0,14.0,,,HRV,HRV_0261,2022-11-30 19:59:21
,wl-rdm,132,431054,0.0-8.14-0.14,1.0,132.0,,,,,,,[],,,,,,56.4,1.0,i,1.0,True,925.3000000119209,56.0,60.0,40.0,False,,217.05628245957462,[],"[1280, 720]",ColorTask,74.0,15.0,,,HRV,HRV_0261,2022-11-30 19:59:21
,wl-rdm,133,433090,0.0-8.15-0.15,1.0,133.0,,,,,,,[],,,,,,62.5,0.0,u,0.0,True,685.6999999880791,42.0,60.0,40.0,False,,274.9135857041576,[],"[1280, 720]",ColorTask,75.0,16.0,,,HRV,HRV_0261,2022-11-30 19:59:21
,wl-rdm,134,435041,0.0-8.16-0.16,1.0,134.0,,,,,,,[],,,,,,73.6,1.0,i,1.0,True,657.6999999880791,40.0,60.0,40.0,False,,227.5778221356116,[],"[1280, 720]",ColorTask,76.0,17.0,,,HRV,HRV_0261,2022-11-30 19:59:21
,wl-rdm,135,437026,0.0-8.17-0.17,1.0,135.0,,,,,,,[],,,,,,73.6,0.0,u,0.0,True,659.2000000476837,40.0,60.0,40.0,False,,255.53326612554827,[],"[1280, 720]",ColorTask,77.0,18.0,,,HRV,HRV_0261,2022-11-30 19:59:21
,wl-rdm,136,438944,0.0-8.18-0.18,1.0,136.0,,,,,,,[],,,,,,73.6,1.0,i,1.0,True,535.1999999880791,33.0,60.0,40.0,False,,305.90294308136026,[],"[1280, 720]",ColorTask,78.0,19.0,,,HRV,HRV_0261,2022-11-30 19:59:21
,wl-rdm,137,441013,0.0-8.19-0.19,1.0,137.0,,,,,,,[],,,,,,50.0,0.0,i,1.0,False,757.3000000119209,46.0,60.0,40.0,False,,235.445017047999,[],"[1280, 720]",ColorTask,77.0,20.0,,,HRV,HRV_0261,2022-11-30 19:59:21
,wl-rdm,138,443882,0.0-8.20-0.20,1.0,138.0,,,,,,,[],,,,,,50.0,1.0,i,1.0,True,1467.1000000238419,88.0,60.0,40.0,False,,348.0880193656649,[],"[1280, 720]",ColorTask,78.0,21.0,,,HRV,HRV_0261,2022-11-30 19:59:21
,wl-rdm,139,445917,0.0-8.21-0.21,1.0,139.0,,,,,,,[],,,,,,87.9,1.0,i,1.0,True,619.8000000119209,38.0,60.0,40.0,False,,341.8449185008965,[],"[1280, 720]",ColorTask,79.0,22.0,,,HRV,HRV_0261,2022-11-30 19:59:21
,wl-rdm,140,448703,0.0-8.22-0.22,1.0,140.0,,,,,,,[],,,,,,62.5,1.0,i,1.0,True,1407.300000011921,85.0,60.0,40.0,False,,313.5111890845742,[],"[1280, 720]",ColorTask,80.0,23.0,,,HRV,HRV_0261,2022-11-30 19:59:21
,wl-rdm,141,451038,0.0-8.23-0.23,1.0,141.0,,,,,,,[],,,,,,62.5,0.0,u,0.0,True,970.0999999642372,59.0,60.0,40.0,False,,288.9311263676568,[],"[1280, 720]",ColorTask,81.0,24.0,,,HRV,HRV_0261,2022-11-30 19:59:21
,wl-rdm,142,453657,0.0-8.24-0.24,1.0,142.0,,,,,,,[],,,,,,62.5,1.0,i,1.0,True,1346.199999988079,81.0,60.0,40.0,False,,206.42385450713394,[],"[1280, 720]",ColorTask,82.0,25.0,,,HRV,HRV_0261,2022-11-30 19:59:21
,wl-rdm,143,455876,0.0-8.25-0.25,1.0,143.0,,,,,,,[],,,,,,73.6,1.0,i,1.0,True,799.0999999642372,48.0,60.0,40.0,False,,363.7173237804483,[],"[1280, 720]",ColorTask,83.0,26.0,,,HRV,HRV_0261,2022-11-30 19:59:21
,wl-rdm,144,458261,0.0-8.26-0.26,1.0,144.0,,,,,,,[],,,,,,53.2,0.0,u,0.0,True,1037.1000000238419,63.0,60.0,40.0,False,,269.96393440721357,[],"[1280, 720]",ColorTask,84.0,27.0,,,HRV,HRV_0261,2022-11-30 19:59:21
,wl-rdm,145,461397,0.0-8.27-0.27,1.0,145.0,,,,,,,[],,,,,,53.2,1.0,u,0.0,False,1809.8999999761581,109.0,60.0,40.0,False,,256.8760545132566,[],"[1280, 720]",ColorTask,83.0,28.0,,,HRV,HRV_0261,2022-11-30 19:59:21
,wl-rdm,146,464499,0.0-8.28-0.28,1.0,146.0,,,,,,,[],,,,,,50.0,0.0,i,1.0,False,1672.800000011921,101.0,60.0,40.0,False,,351.38171968293614,[],"[1280, 720]",ColorTask,82.0,29.0,,,HRV,HRV_0261,2022-11-30 19:59:21
,wl-rdm,147,466584,0.0-8.29-0.29,1.0,147.0,,,,,,,[],,,,,,73.6,0.0,u,0.0,True,730.2999999523163,44.0,60.0,40.0,False,,288.71859180842375,[],"[1280, 720]",ColorTask,83.0,30.0,,,HRV,HRV_0261,2022-11-30 19:59:21
,wl-rdm,148,468503,0.0-8.30-0.30,1.0,148.0,,,,,,,[],,,,,,87.9,1.0,i,1.0,True,648.2000000476837,39.0,60.0,40.0,False,,201.0030421750124,[],"[1280, 720]",ColorTask,84.0,31.0,,,HRV,HRV_0261,2022-11-30 19:59:21
,wl-rdm,149,470521,0.0-8.31-0.31,1.0,149.0,,,,,,,[],,,,,,87.9,0.0,u,0.0,True,637.6999999284744,39.0,60.0,40.0,False,,309.4190005722494,[],"[1280, 720]",ColorTask,85.0,32.0,,,HRV,HRV_0261,2022-11-30 19:59:21
,wl-rdm,150,472472,0.0-8.32-0.32,1.0,150.0,,,,,,,[],,,,,,62.5,1.0,i,1.0,True,650.5,39.0,60.0,40.0,False,,246.37371605397828,[],"[1280, 720]",ColorTask,86.0,33.0,,,HRV,HRV_0261,2022-11-30 19:59:21
,wl-rdm,151,475292,0.0-8.33-0.33,1.0,151.0,,,,,,,[],,,,,,50.0,0.0,u,0.0,True,1446.5999999642372,87.0,60.0,40.0,False,,314.87950512013106,[],"[1280, 720]",ColorTask,87.0,34.0,,,HRV,HRV_0261,2022-11-30 19:59:21
,wl-rdm,152,477327,0.0-8.34-0.34,1.0,152.0,,,,,,,[],,,,,,87.9,1.0,i,1.0,True,614.6999999880791,37.0,60.0,40.0,False,,356.6390252987793,[],"[1280, 720]",ColorTask,88.0,35.0,,,HRV,HRV_0261,2022-11-30 19:59:21
,wl-rdm,153,480062,0.0-8.35-0.35,1.0,153.0,,,,,,,[],,,,,,53.2,0.0,u,0.0,True,1403.800000011921,85.0,60.0,40.0,False,,253.16302777901387,[],"[1280, 720]",ColorTask,89.0,36.0,,,HRV,HRV_0261,2022-11-30 19:59:21
,wl-rdm,154,482881,0.0-8.36-0.36,1.0,154.0,,,,,,,[],,,,,,53.2,1.0,u,0.0,False,1510.0999999642372,91.0,60.0,40.0,False,,246.93941844308074,[],"[1280, 720]",ColorTask,88.0,37.0,,,HRV,HRV_0261,2022-11-30 19:59:21
,wl-rdm,155,486017,0.0-8.37-0.37,1.0,155.0,,,,,,,[],,,,,,50.0,0.0,u,0.0,True,1850.5999999642372,111.0,60.0,40.0,False,,219.04167884803422,[],"[1280, 720]",ColorTask,89.0,38.0,,,HRV,HRV_0261,2022-11-30 19:59:21
,wl-rdm,156,488119,0.0-8.38-0.38,1.0,156.0,,,,,,,[],,,,,,73.6,0.0,u,0.0,True,786.1000000238419,48.0,60.0,40.0,False,,234.35877848627968,[],"[1280, 720]",ColorTask,90.0,39.0,,,HRV,HRV_0261,2022-11-30 19:59:21
,wl-rdm,157,490204,0.0-8.39-0.39,1.0,157.0,,,,,,,[],,,,,,53.2,0.0,u,0.0,True,797.1000000238419,48.0,60.0,40.0,False,,221.49782230364298,[],"[1280, 720]",ColorTask,91.0,40.0,,,HRV,HRV_0261,2022-11-30 19:59:21
,wl-rdm,158,492940,0.0-8.40-0.40,1.0,158.0,,,,,,,[],,,,,,62.5,1.0,i,1.0,True,1460.5,88.0,60.0,40.0,False,,201.29872806012838,[],"[1280, 720]",ColorTask,92.0,41.0,,,HRV,HRV_0261,2022-11-30 19:59:21
,wl-rdm,159,494891,0.0-8.41-0.41,1.0,159.0,,,,,,,[],,,,,,87.9,0.0,u,0.0,True,678.1000000238419,41.0,60.0,40.0,False,,203.38062982493975,[],"[1280, 720]",ColorTask,93.0,42.0,,,HRV,HRV_0261,2022-11-30 19:59:21
,wl-rdm,160,497110,0.0-8.42-0.42,1.0,160.0,,,,,,,[],,,,,,62.5,0.0,u,0.0,True,929.5,56.0,60.0,40.0,False,,224.74741369331926,[],"[1280, 720]",ColorTask,94.0,43.0,,,HRV,HRV_0261,2022-11-30 19:59:21
,wl-rdm,161,499178,0.0-8.43-0.43,1.0,161.0,,,,,,,[],,,,,,87.9,1.0,i,1.0,True,613.2999999523163,37.0,60.0,40.0,False,,395.420137650309,[],"[1280, 720]",ColorTask,95.0,44.0,,,HRV,HRV_0261,2022-11-30 19:59:21
,wl-rdm,162,501230,0.0-8.44-0.44,1.0,162.0,,,,,,,[],,,,,,73.6,0.0,u,0.0,True,718.0999999642372,44.0,60.0,40.0,False,,260.7626151094196,[],"[1280, 720]",ColorTask,96.0,45.0,,,HRV,HRV_0261,2022-11-30 19:59:21
,wl-rdm,163,503248,0.0-8.45-0.45,1.0,163.0,,,,,,,[],,,,,,73.6,1.0,i,1.0,True,696.1000000238419,42.0,60.0,40.0,False,,264.07865302930117,[],"[1280, 720]",ColorTask,97.0,46.0,,,HRV,HRV_0261,2022-11-30 19:59:21
,wl-rdm,164,505633,0.0-8.46-0.46,1.0,164.0,,,,,,,[],,,,,,73.6,1.0,i,1.0,True,1101.6000000238419,67.0,60.0,40.0,False,,203.9872164272963,[],"[1280, 720]",ColorTask,98.0,47.0,,,HRV,HRV_0261,2022-11-30 19:59:21
,wl-rdm,165,508502,0.0-8.47-0.47,1.0,165.0,,,,,,,[],,,,,,53.2,0.0,u,0.0,True,1535.9000000357628,93.0,60.0,40.0,False,,262.39993175380124,[],"[1280, 720]",ColorTask,99.0,48.0,,,HRV,HRV_0261,2022-11-30 19:59:21
,wl-rdm,166,510770,0.0-8.48-0.48,1.0,166.0,,,,,,,[],,,,,,62.5,0.0,u,0.0,True,931.3000000119209,56.0,60.0,40.0,False,,282.13238172767166,[],"[1280, 720]",ColorTask,100.0,49.0,,,HRV,HRV_0261,2022-11-30 19:59:21
,wl-rdm,167,512772,0.0-8.49-0.49,1.0,167.0,,,,,,,[],,,,,,73.6,0.0,u,0.0,True,704.6999999880791,43.0,60.0,40.0,False,,220.1341794753705,[],"[1280, 720]",ColorTask,101.0,50.0,,,HRV,HRV_0261,2022-11-30 19:59:21
,wl-rdm,168,515207,0.0-8.50-0.50,1.0,168.0,,,,,,,[],,,,,,56.4,0.0,u,0.0,True,1133.300000011921,68.0,60.0,40.0,False,,238.24486486311915,[],"[1280, 720]",ColorTask,102.0,51.0,,,HRV,HRV_0261,2022-11-30 19:59:21
,wl-rdm,169,517309,0.0-8.51-0.51,1.0,169.0,,,,,,,[],,,,,,50.0,1.0,u,0.0,False,769.3999999761581,47.0,60.0,40.0,False,,255.70470833481104,[],"[1280, 720]",ColorTask,101.0,52.0,,,HRV,HRV_0261,2022-11-30 19:59:21
,wl-rdm,170,519828,0.0-8.52-0.52,1.0,170.0,,,,,,,[],,,,,,50.0,1.0,i,1.0,True,1216.300000011921,73.0,60.0,40.0,False,,247.34120682045855,[],"[1280, 720]",ColorTask,102.0,53.0,,,HRV,HRV_0261,2022-11-30 19:59:21
,wl-rdm,171,522430,0.0-8.53-0.53,1.0,171.0,,,,,,,[],,,,,,56.4,1.0,i,1.0,True,1190.5,72.0,60.0,40.0,False,,348.1653494046901,[],"[1280, 720]",ColorTask,103.0,54.0,,,HRV,HRV_0261,2022-11-30 19:59:21
,wl-rdm,172,524916,0.0-8.54-0.54,1.0,172.0,,,,,,,[],,,,,,56.4,1.0,i,1.0,True,1206.800000011921,73.0,60.0,40.0,False,,214.9652646123747,[],"[1280, 720]",ColorTask,104.0,55.0,,,HRV,HRV_0261,2022-11-30 19:59:21
,wl-rdm,173,526967,0.0-8.55-0.55,1.0,173.0,,,,,,,[],,,,,,73.6,0.0,u,0.0,True,747.4000000357628,45.0,60.0,40.0,False,,247.9943367554471,[],"[1280, 720]",ColorTask,105.0,56.0,,,HRV,HRV_0261,2022-11-30 19:59:21
,wl-rdm,174,529219,0.0-8.56-0.56,1.0,174.0,,,,,,,[],,,,,,56.4,0.0,u,0.0,True,931.5999999642372,56.0,60.0,40.0,False,,264.18132458055567,[],"[1280, 720]",ColorTask,106.0,57.0,,,HRV,HRV_0261,2022-11-30 19:59:21
,wl-rdm,175,531788,0.0-8.57-0.57,1.0,175.0,,,,,,,[],,,,,,53.2,0.0,u,0.0,True,1295.0,78.0,60.0,40.0,False,,213.3997650009713,[],"[1280, 720]",ColorTask,107.0,58.0,,,HRV,HRV_0261,2022-11-30 19:59:21
,wl-rdm,176,533773,0.0-8.58-0.58,1.0,176.0,,,,,,,[],,,,,,87.9,0.0,u,0.0,True,673.8000000119209,41.0,60.0,40.0,False,,246.8067918234657,[],"[1280, 720]",ColorTask,108.0,59.0,,,HRV,HRV_0261,2022-11-30 19:59:21
,wl-rdm,177,536325,0.0-8.59-0.59,1.0,177.0,,,,,,,[],,,,,,50.0,1.0,u,0.0,False,1255.5,76.0,60.0,40.0,False,,227.92326470267258,[],"[1280, 720]",ColorTask,107.0,60.0,,,HRV,HRV_0261,2022-11-30 19:59:21
,wl-rdm,178,538360,0.0-8.60-0.60,1.0,178.0,,,,,,,[],,,,,,73.6,0.0,u,0.0,True,660.1000000238419,40.0,60.0,40.0,False,,310.6163021867119,[],"[1280, 720]",ColorTask,108.0,61.0,,,HRV,HRV_0261,2022-11-30 19:59:21
,wl-rdm,179,540595,0.0-8.61-0.61,1.0,179.0,,,,,,,[],,,,,,50.0,1.0,u,0.0,False,779.6999999880791,47.0,60.0,40.0,False,,399.3094794326886,[],"[1280, 720]",ColorTask,107.0,62.0,,,HRV,HRV_0261,2022-11-30 19:59:21
,wl-rdm,180,543765,0.0-8.62-0.62,1.0,180.0,,,,,,,[],,,,,,62.5,0.0,u,0.0,True,1887.6000000238419,114.0,60.0,40.0,False,,201.22263701341262,[],"[1280, 720]",ColorTask,108.0,63.0,,,HRV,HRV_0261,2022-11-30 19:59:21
,wl-rdm,181,545783,0.0-8.63-0.63,1.0,181.0,,,,,,,[],,,,,,87.9,0.0,u,0.0,True,677.8000000119209,41.0,60.0,40.0,False,,273.1389612912413,[],"[1280, 720]",ColorTask,109.0,64.0,,,HRV,HRV_0261,2022-11-30 19:59:21
,wl-rdm,182,548752,0.0-8.64-0.64,1.0,182.0,,,,,,,[],,,,,,53.2,1.0,u,0.0,False,1694.5,102.0,60.0,40.0,False,,209.32420371735245,[],"[1280, 720]",ColorTask,108.0,65.0,,,HRV,HRV_0261,2022-11-30 19:59:21
,wl-rdm,183,551605,0.0-8.65-0.65,1.0,183.0,,,,,,,[],,,,,,50.0,1.0,u,0.0,False,1544.6000000238419,93.0,60.0,40.0,False,,236.69343325217466,[],"[1280, 720]",ColorTask,107.0,66.0,,,HRV,HRV_0261,2022-11-30 19:59:21
,wl-rdm,184,554173,0.0-8.66-0.66,1.0,184.0,,,,,,,[],,,,,,56.4,1.0,i,1.0,True,1144.199999988079,69.0,60.0,40.0,False,,351.5081855848807,[],"[1280, 720]",ColorTask,108.0,67.0,,,HRV,HRV_0261,2022-11-30 19:59:21
,wl-rdm,185,556876,0.0-8.67-0.67,1.0,185.0,,,,,,,[],,,,,,62.5,1.0,i,1.0,True,1379.0,83.0,60.0,40.0,False,,257.7363639161951,[],"[1280, 720]",ColorTask,109.0,68.0,,,HRV,HRV_0261,2022-11-30 19:59:21
,wl-rdm,186,559511,0.0-8.68-0.68,1.0,186.0,,,,,,,[],,,,,,56.4,0.0,u,0.0,True,1250.1000000238419,75.0,60.0,40.0,False,,319.3365945975425,[],"[1280, 720]",ColorTask,110.0,69.0,,,HRV,HRV_0261,2022-11-30 19:59:21
,wl-rdm,187,562063,0.0-8.69-0.69,1.0,187.0,,,,,,,[],,,,,,62.5,0.0,u,0.0,True,1200.2999999523163,72.0,60.0,40.0,False,,283.9812780878274,[],"[1280, 720]",ColorTask,111.0,70.0,,,HRV,HRV_0261,2022-11-30 19:59:21
,wl-rdm,188,563948,0.0-8.70-0.70,1.0,188.0,,,,,,,[],,,,,,87.9,1.0,i,1.0,True,589.3000000119209,36.0,60.0,40.0,False,,229.03389411633535,[],"[1280, 720]",ColorTask,112.0,71.0,,,HRV,HRV_0261,2022-11-30 19:59:21
,wl-rdm,189,566283,0.0-8.71-0.71,1.0,189.0,,,,,,,[],,,,,,53.2,1.0,u,0.0,False,1001.9000000357628,61.0,60.0,40.0,False,,255.50303589657298,[],"[1280, 720]",ColorTask,111.0,72.0,,,HRV,HRV_0261,2022-11-30 19:59:21
,wl-rdm,190,568485,0.0-8.72-0.72,1.0,190.0,,,,,,,[],,,,,,87.9,0.0,u,0.0,True,843.9000000357628,51.0,60.0,40.0,False,,288.9210894446625,[],"[1280, 720]",ColorTask,112.0,73.0,,,HRV,HRV_0261,2022-11-30 19:59:21
,wl-rdm,191,571771,0.0-8.73-0.73,1.0,191.0,,,,,,,[],,,,,,50.0,0.0,i,1.0,False,1890.5,114.0,60.0,40.0,False,,329.57347842695674,[],"[1280, 720]",ColorTask,111.0,74.0,,,HRV,HRV_0261,2022-11-30 19:59:21
,wl-rdm,192,575325,0.0-8.74-0.74,1.0,192.0,,,,,,,[],,,,,,50.0,0.0,i,1.0,False,2201.600000023842,132.0,60.0,40.0,False,,284.2559923914481,[],"[1280, 720]",ColorTask,110.0,75.0,,,HRV,HRV_0261,2022-11-30 19:59:21
,wl-rdm,193,578527,0.0-8.75-0.75,1.0,193.0,,,,,,,[],,,,,,53.2,1.0,i,1.0,True,1856.6000000238419,112.0,60.0,40.0,False,,275.44805545535485,[],"[1280, 720]",ColorTask,111.0,76.0,,,HRV,HRV_0261,2022-11-30 19:59:21
,wl-rdm,194,580478,0.0-8.76-0.76,1.0,194.0,,,,,,,[],,,,,,87.9,1.0,i,1.0,True,656.6000000238419,40.0,60.0,40.0,False,,217.07628922713505,[],"[1280, 720]",ColorTask,112.0,77.0,,,HRV,HRV_0261,2022-11-30 19:59:21
,wl-rdm,195,583514,0.0-8.77-0.77,1.0,195.0,,,,,,,[],,,,,,53.2,1.0,i,1.0,True,1700.300000011921,102.0,60.0,40.0,False,,274.7357723053369,[],"[1280, 720]",ColorTask,113.0,78.0,,,HRV,HRV_0261,2022-11-30 19:59:21
,wl-rdm,196,586100,0.0-8.78-0.78,1.0,196.0,,,,,,,[],,,,,,73.6,1.0,i,1.0,True,1169.300000011921,71.0,60.0,40.0,False,,346.5514267127043,[],"[1280, 720]",ColorTask,114.0,79.0,,,HRV,HRV_0261,2022-11-30 19:59:21
,wl-rdm,197,588051,0.0-8.79-0.79,1.0,197.0,,,,,,,[],,,,,,62.5,1.0,i,1.0,True,676.5,41.0,60.0,40.0,False,,211.86049030973982,[],"[1280, 720]",ColorTask,115.0,80.0,,,HRV,HRV_0261,2022-11-30 19:59:21
,wl-rdm,198,590270,0.0-8.80-0.80,1.0,198.0,,,,,,,[],,,,,,56.4,0.0,u,0.0,True,849.9000000357628,51.0,60.0,40.0,False,,313.18666654013714,[],"[1280, 720]",ColorTask,116.0,81.0,,,HRV,HRV_0261,2022-11-30 19:59:21
,wl-rdm,199,593056,0.0-8.81-0.81,1.0,199.0,,,,,,,[],,,,,,53.2,0.0,u,0.0,True,1389.6999999284744,84.0,60.0,40.0,False,,318.3953193570711,[],"[1280, 720]",ColorTask,117.0,82.0,,,HRV,HRV_0261,2022-11-30 19:59:21
,wl-rdm,200,595091,0.0-8.82-0.82,1.0,200.0,,,,,,,[],,,,,,62.5,1.0,i,1.0,True,657.3999999761581,40.0,60.0,40.0,False,,285.9140905582185,[],"[1280, 720]",ColorTask,118.0,83.0,,,HRV,HRV_0261,2022-11-30 19:59:21
,wl-rdm,201,597059,0.0-8.83-0.83,1.0,201.0,,,,,,,[],,,,,,87.9,1.0,i,1.0,True,559.4000000357628,34.0,60.0,40.0,False,,335.05630409986645,[],"[1280, 720]",ColorTask,119.0,84.0,,,HRV,HRV_0261,2022-11-30 19:59:21
,wl-rdm,202,599211,0.0-8.84-0.84,1.0,202.0,,,,,,,[],,,,,,53.2,0.0,u,0.0,True,800.0,48.0,60.0,40.0,False,,287.7539724930857,[],"[1280, 720]",ColorTask,120.0,85.0,,,HRV,HRV_0261,2022-11-30 19:59:21
,wl-rdm,203,601763,0.0-8.85-0.85,1.0,203.0,,,,,,,[],,,,,,73.6,1.0,i,1.0,True,1227.8999999761581,74.0,60.0,40.0,False,,262.32364968560313,[],"[1280, 720]",ColorTask,121.0,86.0,,,HRV,HRV_0261,2022-11-30 19:59:21
,wl-rdm,204,604265,0.0-8.86-0.86,1.0,204.0,,,,,,,[],,,,,,62.5,1.0,i,1.0,True,1176.1000000238419,71.0,60.0,40.0,False,,252.06648231519887,[],"[1280, 720]",ColorTask,122.0,87.0,,,HRV,HRV_0261,2022-11-30 19:59:21
,wl-rdm,205,607601,0.0-8.87-0.87,1.0,205.0,,,,,,,[],,,,,,56.4,1.0,u,0.0,False,1970.2000000476837,119.0,60.0,40.0,False,,294.4005600610595,[],"[1280, 720]",ColorTask,121.0,88.0,,,HRV,HRV_0261,2022-11-30 19:59:21
,wl-rdm,206,610453,0.0-8.88-0.88,1.0,206.0,,,,,,,[],,,,,,50.0,0.0,u,0.0,True,1402.5999999642372,85.0,60.0,40.0,False,,368.05641182662333,[],"[1280, 720]",ColorTask,122.0,89.0,,,HRV,HRV_0261,2022-11-30 19:59:21
,wl-rdm,207,613522,0.0-8.89-0.89,1.0,207.0,,,,,,,[],,,,,,56.4,1.0,i,1.0,True,1696.0,102.0,60.0,40.0,False,,301.1237759530624,[],"[1280, 720]",ColorTask,123.0,90.0,,,HRV,HRV_0261,2022-11-30 19:59:21
,wl-rdm,208,616175,0.0-8.90-0.90,1.0,208.0,,,,,,,[],,,,,,50.0,1.0,i,1.0,True,1209.800000011921,73.0,60.0,40.0,False,,383.72178894477827,[],"[1280, 720]",ColorTask,124.0,91.0,,,HRV,HRV_0261,2022-11-30 19:59:21
,wl-rdm,209,619227,0.0-8.91-0.91,1.0,209.0,,,,,,,[],,,,,,56.4,1.0,i,1.0,True,1778.800000011921,107.0,60.0,40.0,False,,209.08007769367558,[],"[1280, 720]",ColorTask,125.0,92.0,,,HRV,HRV_0261,2022-11-30 19:59:21
,wl-rdm,210,621646,0.0-8.92-0.92,1.0,210.0,,,,,,,[],,,,,,62.5,1.0,i,1.0,True,1123.4000000357628,68.0,60.0,40.0,False,,232.74897366440536,[],"[1280, 720]",ColorTask,126.0,93.0,,,HRV,HRV_0261,2022-11-30 19:59:21
,wl-rdm,211,624215,0.0-8.93-0.93,1.0,211.0,,,,,,,[],,,,,,50.0,0.0,u,0.0,True,1122.3999999761581,68.0,60.0,40.0,False,,376.0989216747977,[],"[1280, 720]",ColorTask,127.0,94.0,,,HRV,HRV_0261,2022-11-30 19:59:21
,wl-rdm,212,626967,0.0-8.94-0.94,1.0,212.0,,,,,,,[],,,,,,53.2,1.0,u,0.0,False,1445.199999988079,87.0,60.0,40.0,False,,236.4439345701022,[],"[1280, 720]",ColorTask,126.0,95.0,,,HRV,HRV_0261,2022-11-30 19:59:21
,wl-rdm,213,629202,0.0-8.95-0.95,1.0,213.0,,,,,,,[],,,,,,62.5,0.0,u,0.0,True,962.8000000119209,58.0,60.0,40.0,False,,206.3413010200039,[],"[1280, 720]",ColorTask,127.0,96.0,,,HRV,HRV_0261,2022-11-30 19:59:21
,wl-rdm,214,631304,0.0-8.96-0.96,1.0,214.0,,,,,,,[],,,,,,87.9,1.0,i,1.0,True,815.8000000119209,49.0,60.0,40.0,False,,228.06467695546974,[],"[1280, 720]",ColorTask,128.0,97.0,,,HRV,HRV_0261,2022-11-30 19:59:21
,wl-rdm,215,633539,0.0-8.97-0.97,1.0,215.0,,,,,,,[],,,,,,56.4,1.0,i,1.0,True,901.3000000119209,55.0,60.0,40.0,False,,243.05427193825244,[],"[1280, 720]",ColorTask,129.0,98.0,,,HRV,HRV_0261,2022-11-30 19:59:21
,wl-rdm,216,636325,0.0-8.98-0.98,1.0,216.0,,,,,,,[],,,,,,56.4,0.0,u,0.0,True,1417.0,85.0,60.0,40.0,False,,304.5887042934845,[],"[1280, 720]",ColorTask,130.0,99.0,,,HRV,HRV_0261,2022-11-30 19:59:21
,wl-rdm,217,638426,0.0-8.99-0.99,1.0,217.0,,,,,,,[],,,,,,87.9,0.0,u,0.0,True,702.6999999880791,43.0,60.0,40.0,False,,332.7163057090536,[],"[1280, 720]",ColorTask,131.0,100.0,,,HRV,HRV_0261,2022-11-30 19:59:21
,wl-rdm,218,640811,0.0-8.100-0.100,1.0,218.0,,,,,,,[],,,,,,53.2,0.0,u,0.0,True,1077.5,65.0,60.0,40.0,False,,246.91867067436493,[],"[1280, 720]",ColorTask,132.0,101.0,,,HRV,HRV_0261,2022-11-30 19:59:21
,wl-rdm,219,643697,0.0-8.101-0.101,1.0,219.0,,,,,,,[],,,,,,73.6,1.0,i,1.0,True,1601.4000000357628,97.0,60.0,40.0,False,,216.81270180713213,[],"[1280, 720]",ColorTask,133.0,102.0,,,HRV,HRV_0261,2022-11-30 19:59:21
,wl-rdm,220,646233,0.0-8.102-0.102,1.0,220.0,,,,,,,[],,,,,,62.5,0.0,u,0.0,True,1193.800000011921,72.0,60.0,40.0,False,,270.66783912159786,[],"[1280, 720]",ColorTask,134.0,103.0,,,HRV,HRV_0261,2022-11-30 19:59:21
,wl-rdm,221,648618,0.0-8.103-0.103,1.0,221.0,,,,,,,[],,,,,,50.0,1.0,u,0.0,False,975.8000000119209,59.0,60.0,40.0,False,,350.24907848553,[],"[1280, 720]",ColorTask,133.0,104.0,,,HRV,HRV_0261,2022-11-30 19:59:21
,wl-rdm,222,651521,0.0-8.104-0.104,1.0,222.0,,,,,,,[],,,,,,53.2,1.0,i,1.0,True,1536.4000000357628,93.0,60.0,40.0,False,,286.9040032083025,[],"[1280, 720]",ColorTask,134.0,105.0,,,HRV,HRV_0261,2022-11-30 19:59:21
,wl-rdm,223,654640,0.0-8.105-0.105,1.0,223.0,,,,,,,[],,,,,,56.4,0.0,u,0.0,True,1782.5,107.0,60.0,40.0,False,,277.68882775254417,[],"[1280, 720]",ColorTask,135.0,106.0,,,HRV,HRV_0261,2022-11-30 19:59:21
,wl-rdm,224,657259,0.0-8.106-0.106,1.0,224.0,,,,,,,[],,,,,,87.9,0.0,u,0.0,True,1325.6000000238419,80.0,60.0,40.0,False,,224.35663504407506,[],"[1280, 720]",ColorTask,136.0,107.0,,,HRV,HRV_0261,2022-11-30 19:59:21
,wl-rdm,225,659427,0.0-8.107-0.107,1.0,225.0,,,,,,,[],,,,,,50.0,0.0,u,0.0,True,868.1000000238419,53.0,60.0,40.0,False,,227.0718746112949,[],"[1280, 720]",ColorTask,137.0,108.0,,,HRV,HRV_0261,2022-11-30 19:59:21
,wl-html-button-response,226,662737,0.0-9.0-0.0,,,,,,,,,,3308.0,,0,,,,,,,,,,,,,,,,,,,,<h3>End of this session. Thank you!</h3><br>,['Close window'],HRV,HRV_0261,2022-11-30 19:59:21
