trialN,stimuli,trialStartTime,trialStartTime_UNIX,stimulus1,stimulus2,stimulus1Bid,stimulus2Bid,delta,selected,rt,rt_UNIX,rt_perfnow,receivedResponse,rsp,trialEndTime,trialDuration,trialEndTime_UNIX,trialDuration_UNIX,exp,subjectId,date
0,"[{'imgObject': {}, 'id': 'hotdog w must', 'src': '/static/foodstim60/hotdog w must.jpg', 'key': 'u', 'origWidth': 409, 'origHeight': 409, 'width': 409, 'height': 409, 'widthPercent': 0.45, 'rescaleHeight': False, 'trialN': 0, 'loaded': True, 'loadedTime': 4290.800000011921, 'positionName': 'LEFT', 'positionCoords': [246.68, 179.5], 'bid': 0.1}, {'imgObject': {}, 'id': 'lox', 'src': '/static/foodstim60/lox.jpg', 'key': 'i', 'origWidth': 410, 'origHeight': 411, 'width': 410, 'height': 411, 'widthPercent': 0.45, 'rescaleHeight': False, 'trialN': 0, 'loaded': True, 'loadedTime': 4362.700000017881, 'positionName': 'RIGHT', 'positionCoords': [710.32, 178.5], 'bid': 0}]",5931.300000011921,1669840231437,hotdog w must,lox,0.1,0.0,-0.1,hotdog w must,1227.800000011921,1229,1229.300000011921,True,u,7667.5,1736.199999988079,1669840233173,1736,HRV,HRV_0292,2022-11-30 20:35:54
1,"[{'imgObject': {}, 'id': 'chickenfingers', 'src': '/static/foodstim60/chickenfingers.jpg', 'key': 'u', 'origWidth': 410, 'origHeight': 410, 'width': 410, 'height': 410, 'widthPercent': 0.45, 'rescaleHeight': False, 'trialN': 1, 'loaded': True, 'loadedTime': 4387.4000000059605, 'positionName': 'LEFT', 'positionCoords': [245.68, 179], 'bid': 1.41}, {'imgObject': {}, 'id': 'chicken nuggets2', 'src': '/static/foodstim60/chicken nuggets2.jpg', 'key': 'i', 'origWidth': 410, 'origHeight': 409, 'width': 410, 'height': 409, 'widthPercent': 0.45, 'rescaleHeight': False, 'trialN': 1, 'loaded': True, 'loadedTime': 4439.5, 'positionName': 'RIGHT', 'positionCoords': [710.32, 179.5], 'bid': 1.57}]",7668.4000000059605,1669840233174,chickenfingers,chicken nuggets2,1.41,1.57,0.16000000000000014,chickenfingers,1369.5999999940395,1370,1370.4000000059605,True,u,9558.90000000596,1890.5,1669840235064,1890,HRV,HRV_0292,2022-11-30 20:35:54
2,"[{'imgObject': {}, 'id': 'fried eggs', 'src': '/static/foodstim60/fried eggs.jpg', 'key': 'u', 'origWidth': 410, 'origHeight': 410, 'width': 410, 'height': 410, 'widthPercent': 0.45, 'rescaleHeight': False, 'trialN': 2, 'loaded': True, 'loadedTime': 4486.9000000059605, 'positionName': 'LEFT', 'positionCoords': [245.68, 179], 'bid': 5.92}, {'imgObject': {}, 'id': 'raisin bran w milk', 'src': '/static/foodstim60/raisin bran w milk.jpg', 'key': 'i', 'origWidth': 411, 'origHeight': 411, 'width': 411, 'height': 411, 'widthPercent': 0.45, 'rescaleHeight': False, 'trialN': 2, 'loaded': True, 'loadedTime': 4537.200000017881, 'positionName': 'RIGHT', 'positionCoords': [710.32, 178.5], 'bid': 5.33}]",9559.5,1669840235065,fried eggs,raisin bran w milk,5.92,5.33,-0.5899999999999999,raisin bran w milk,2151.0,2139,2152.300000011921,True,i,12219.40000000596,2659.9000000059605,1669840237712,2647,HRV,HRV_0292,2022-11-30 20:35:54
3,"[{'imgObject': {}, 'id': 'chicken nuggets2', 'src': '/static/foodstim60/chicken nuggets2.jpg', 'key': 'u', 'origWidth': 410, 'origHeight': 409, 'width': 410, 'height': 409, 'widthPercent': 0.45, 'rescaleHeight': False, 'trialN': 3, 'loaded': True, 'loadedTime': 4441, 'positionName': 'LEFT', 'positionCoords': [245.68, 179.5], 'bid': 1.57}, {'imgObject': {}, 'id': 'shreddedwheatwithmilk', 'src': '/static/foodstim60/shreddedwheatwithmilk.jpg', 'key': 'i', 'origWidth': 410, 'origHeight': 410, 'width': 410, 'height': 410, 'widthPercent': 0.45, 'rescaleHeight': False, 'trialN': 3, 'loaded': True, 'loadedTime': 4538.100000023842, 'positionName': 'RIGHT', 'positionCoords': [710.32, 179], 'bid': 1.83}]",12220.0,1669840237713,chicken nuggets2,shreddedwheatwithmilk,1.57,1.83,0.26,chicken nuggets2,1089.1000000238419,1090,1090.1000000238419,True,u,13815.300000011921,1595.300000011921,1669840239308,1595,HRV,HRV_0292,2022-11-30 20:35:54
4,"[{'imgObject': {}, 'id': 'turkeysandwich', 'src': '/static/foodstim60/turkeysandwich.jpg', 'key': 'u', 'origWidth': 409, 'origHeight': 409, 'width': 409, 'height': 409, 'widthPercent': 0.45, 'rescaleHeight': False, 'trialN': 4, 'loaded': True, 'loadedTime': 4634.200000017881, 'positionName': 'LEFT', 'positionCoords': [246.68, 179.5], 'bid': 0}, {'imgObject': {}, 'id': 'rigatoni', 'src': '/static/foodstim60/rigatoni.jpg', 'key': 'i', 'origWidth': 411, 'origHeight': 411, 'width': 411, 'height': 411, 'widthPercent': 0.45, 'rescaleHeight': False, 'trialN': 4, 'loaded': True, 'loadedTime': 4677.4000000059605, 'positionName': 'RIGHT', 'positionCoords': [710.32, 178.5], 'bid': 0.15}]",13815.800000011921,1669840239308,turkeysandwich,rigatoni,0.0,0.15,0.15,turkeysandwich,2139.9000000059605,2141,2140.5999999940395,True,u,16467.100000023842,2651.300000011921,1669840241960,2652,HRV,HRV_0292,2022-11-30 20:35:54
5,"[{'imgObject': {}, 'id': 'raspberries', 'src': '/static/foodstim60/raspberries.jpg', 'key': 'u', 'origWidth': 411, 'origHeight': 411, 'width': 411, 'height': 411, 'widthPercent': 0.45, 'rescaleHeight': False, 'trialN': 5, 'loaded': True, 'loadedTime': 4684.5, 'positionName': 'LEFT', 'positionCoords': [244.68, 178.5], 'bid': 1.51}, {'imgObject': {}, 'id': 'burger', 'src': '/static/foodstim60/burger.jpg', 'key': 'i', 'origWidth': 409, 'origHeight': 409, 'width': 409, 'height': 409, 'widthPercent': 0.45, 'rescaleHeight': False, 'trialN': 5, 'loaded': True, 'loadedTime': 4738.5, 'positionName': 'RIGHT', 'positionCoords': [710.32, 179.5], 'bid': 0.56}]",16467.70000001788,1669840241960,raspberries,burger,1.51,0.56,-0.95,raspberries,1446.2999999821186,1448,1447.2999999821186,True,u,18419.70000001788,1952.0,1669840243912,1952,HRV,HRV_0292,2022-11-30 20:35:54
6,"[{'imgObject': {}, 'id': 'blackbeanswithrice', 'src': '/static/foodstim60/blackbeanswithrice.jpg', 'key': 'u', 'origWidth': 410, 'origHeight': 410, 'width': 410, 'height': 410, 'widthPercent': 0.45, 'rescaleHeight': False, 'trialN': 6, 'loaded': True, 'loadedTime': 4738.9000000059605, 'positionName': 'LEFT', 'positionCoords': [245.68, 179], 'bid': 1.13}, {'imgObject': {}, 'id': 'turkeysandwich', 'src': '/static/foodstim60/turkeysandwich.jpg', 'key': 'i', 'origWidth': 409, 'origHeight': 409, 'width': 409, 'height': 409, 'widthPercent': 0.45, 'rescaleHeight': False, 'trialN': 6, 'loaded': True, 'loadedTime': 4634.5, 'positionName': 'RIGHT', 'positionCoords': [710.32, 179.5], 'bid': 0}]",18420.40000000596,1669840243913,blackbeanswithrice,turkeysandwich,1.13,0.0,-1.13,blackbeanswithrice,1706.4000000059605,1707,1707.2000000178814,True,u,20638.30000001192,2217.9000000059605,1669840246131,2218,HRV,HRV_0292,2022-11-30 20:35:54
7,"[{'imgObject': {}, 'id': 'corn cob', 'src': '/static/foodstim60/corn cob.jpg', 'key': 'u', 'origWidth': 411, 'origHeight': 411, 'width': 411, 'height': 411, 'widthPercent': 0.45, 'rescaleHeight': False, 'trialN': 7, 'loaded': True, 'loadedTime': 4840.100000023842, 'positionName': 'LEFT', 'positionCoords': [244.68, 178.5], 'bid': 0}, {'imgObject': {}, 'id': 'seaweed', 'src': '/static/foodstim60/seaweed.jpg', 'key': 'i', 'origWidth': 410, 'origHeight': 410, 'width': 410, 'height': 410, 'widthPercent': 0.45, 'rescaleHeight': False, 'trialN': 7, 'loaded': True, 'loadedTime': 4848, 'positionName': 'RIGHT', 'positionCoords': [710.32, 179], 'bid': 0}]",20638.90000000596,1669840246132,corn cob,seaweed,0.0,0.0,0.0,corn cob,1896.0999999940395,1897,1897.2000000178814,True,u,23055.90000000596,2417.0,1669840248549,2417,HRV,HRV_0292,2022-11-30 20:35:54
8,"[{'imgObject': {}, 'id': 'blackbeanswithrice', 'src': '/static/foodstim60/blackbeanswithrice.jpg', 'key': 'u', 'origWidth': 410, 'origHeight': 410, 'width': 410, 'height': 410, 'widthPercent': 0.45, 'rescaleHeight': False, 'trialN': 8, 'loaded': True, 'loadedTime': 4797.200000017881, 'positionName': 'LEFT', 'positionCoords': [245.68, 179], 'bid': 1.13}, {'imgObject': {}, 'id': 'cherry tomato', 'src': '/static/foodstim60/cherry tomato.jpg', 'key': 'i', 'origWidth': 410, 'origHeight': 410, 'width': 410, 'height': 410, 'widthPercent': 0.45, 'rescaleHeight': False, 'trialN': 8, 'loaded': True, 'loadedTime': 4849, 'positionName': 'RIGHT', 'positionCoords': [710.32, 179], 'bid': 0.4}]",23056.5,1669840248549,blackbeanswithrice,cherry tomato,1.13,0.4,-0.7299999999999999,blackbeanswithrice,2107.100000023842,2108,2108.100000023842,True,u,25674.600000023842,2618.100000023842,1669840251167,2618,HRV,HRV_0292,2022-11-30 20:35:54
9,"[{'imgObject': {}, 'id': 'sushi w_condiments', 'src': '/static/foodstim60/sushi w_condiments.jpg', 'key': 'u', 'origWidth': 410, 'origHeight': 410, 'width': 410, 'height': 410, 'widthPercent': 0.45, 'rescaleHeight': False, 'trialN': 9, 'loaded': True, 'loadedTime': 4940.4000000059605, 'positionName': 'LEFT', 'positionCoords': [245.68, 179], 'bid': 2.5500000000000003}, {'imgObject': {}, 'id': 'fried eggs', 'src': '/static/foodstim60/fried eggs.jpg', 'key': 'i', 'origWidth': 410, 'origHeight': 410, 'width': 410, 'height': 410, 'widthPercent': 0.45, 'rescaleHeight': False, 'trialN': 9, 'loaded': True, 'loadedTime': 4492.4000000059605, 'positionName': 'RIGHT', 'positionCoords': [710.32, 179], 'bid': 5.92}]",25675.30000001192,1669840251168,sushi w_condiments,fried eggs,2.5500000000000003,5.92,3.3699999999999997,fried eggs,1569.0,1570,1570.4000000059605,True,i,27760.40000000596,2085.0999999940395,1669840253253,2085,HRV,HRV_0292,2022-11-30 20:35:54
10,"[{'imgObject': {}, 'id': 'pear', 'src': '/static/foodstim60/pear.jpg', 'key': 'u', 'origWidth': 411, 'origHeight': 410, 'width': 411, 'height': 410, 'widthPercent': 0.45, 'rescaleHeight': False, 'trialN': 10, 'loaded': True, 'loadedTime': 4946.600000023842, 'positionName': 'LEFT', 'positionCoords': [244.68, 179], 'bid': 4.15}, {'imgObject': {}, 'id': 'bagel plain', 'src': '/static/foodstim60/bagel plain.jpg', 'key': 'i', 'origWidth': 410, 'origHeight': 410, 'width': 410, 'height': 410, 'widthPercent': 0.45, 'rescaleHeight': False, 'trialN': 10, 'loaded': True, 'loadedTime': 4994.300000011921, 'positionName': 'RIGHT', 'positionCoords': [710.32, 179], 'bid': 5.0200000000000005}]",27760.70000001788,1669840253253,pear,bagel plain,4.15,5.0200000000000005,0.8700000000000001,bagel plain,2160.199999988079,2162,2161.2999999821186,True,i,30430.40000000596,2669.699999988079,1669840255923,2670,HRV,HRV_0292,2022-11-30 20:35:54
11,"[{'imgObject': {}, 'id': 'raisin bran w milk', 'src': '/static/foodstim60/raisin bran w milk.jpg', 'key': 'u', 'origWidth': 411, 'origHeight': 411, 'width': 411, 'height': 411, 'widthPercent': 0.45, 'rescaleHeight': False, 'trialN': 11, 'loaded': True, 'loadedTime': 4535.800000011921, 'positionName': 'LEFT', 'positionCoords': [244.68, 178.5], 'bid': 5.33}, {'imgObject': {}, 'id': 'Grapes', 'src': '/static/foodstim60/Grapes.jpg', 'key': 'i', 'origWidth': 411, 'origHeight': 411, 'width': 411, 'height': 411, 'widthPercent': 0.45, 'rescaleHeight': False, 'trialN': 11, 'loaded': True, 'loadedTime': 5029.700000017881, 'positionName': 'RIGHT', 'positionCoords': [710.32, 178.5], 'bid': 7.95}]",30431.0,1669840255924,raisin bran w milk,Grapes,5.33,7.95,2.62,Grapes,2626.800000011921,2628,2627.9000000059605,True,i,33566.10000002384,3135.100000023842,1669840259059,3135,HRV,HRV_0292,2022-11-30 20:35:54
12,"[{'imgObject': {}, 'id': 'popsicles', 'src': '/static/foodstim60/popsicles.jpg', 'key': 'u', 'origWidth': 410, 'origHeight': 410, 'width': 410, 'height': 410, 'widthPercent': 0.45, 'rescaleHeight': False, 'trialN': 12, 'loaded': True, 'loadedTime': 5928.800000011921, 'positionName': 'LEFT', 'positionCoords': [245.68, 179], 'bid': 3.41}, {'imgObject': {}, 'id': 'roastedpotatoes', 'src': '/static/foodstim60/roastedpotatoes.jpg', 'key': 'i', 'origWidth': 409, 'origHeight': 410, 'width': 409, 'height': 410, 'widthPercent': 0.45, 'rescaleHeight': False, 'trialN': 12, 'loaded': True, 'loadedTime': 5032.9000000059605, 'positionName': 'RIGHT', 'positionCoords': [710.32, 179], 'bid': 0.21}]",33566.60000002384,1669840259059,popsicles,roastedpotatoes,3.41,0.21,-3.2,popsicles,1747.3999999761581,1749,1748.699999988079,True,u,35834.70000001788,2268.0999999940395,1669840261327,2268,HRV,HRV_0292,2022-11-30 20:35:54
13,"[{'imgObject': {}, 'id': 'roastedpotatoes', 'src': '/static/foodstim60/roastedpotatoes.jpg', 'key': 'u', 'origWidth': 409, 'origHeight': 410, 'width': 409, 'height': 410, 'widthPercent': 0.45, 'rescaleHeight': False, 'trialN': 13, 'loaded': True, 'loadedTime': 5033.300000011921, 'positionName': 'LEFT', 'positionCoords': [246.68, 179], 'bid': 0.21}, {'imgObject': {}, 'id': 'lox', 'src': '/static/foodstim60/lox.jpg', 'key': 'i', 'origWidth': 410, 'origHeight': 411, 'width': 410, 'height': 411, 'widthPercent': 0.45, 'rescaleHeight': False, 'trialN': 13, 'loaded': True, 'loadedTime': 4367.4000000059605, 'positionName': 'RIGHT', 'positionCoords': [710.32, 178.5], 'bid': 0}]",35835.30000001192,1669840261328,roastedpotatoes,lox,0.21,0.0,-0.21,lox,2376.5,2378,2377.5999999940395,True,i,38721.0,2885.699999988079,1669840264214,2886,HRV,HRV_0292,2022-11-30 20:35:54
14,"[{'imgObject': {}, 'id': 'tacos', 'src': '/static/foodstim60/tacos.jpg', 'key': 'u', 'origWidth': 411, 'origHeight': 411, 'width': 411, 'height': 411, 'widthPercent': 0.45, 'rescaleHeight': False, 'trialN': 14, 'loaded': True, 'loadedTime': 5082.600000023842, 'positionName': 'LEFT', 'positionCoords': [244.68, 178.5], 'bid': 2.1}, {'imgObject': {}, 'id': 'banana', 'src': '/static/foodstim60/banana.jpg', 'key': 'i', 'origWidth': 410, 'origHeight': 410, 'width': 410, 'height': 410, 'widthPercent': 0.45, 'rescaleHeight': False, 'trialN': 14, 'loaded': True, 'loadedTime': 5123.9000000059605, 'positionName': 'RIGHT', 'positionCoords': [710.32, 179], 'bid': 5.04}]",38721.80000001192,1669840264214,tacos,banana,2.1,5.04,2.94,banana,1630.800000011921,1632,1632.0,True,i,40871.80000001192,2150.0,1669840266364,2150,HRV,HRV_0292,2022-11-30 20:35:54
15,"[{'imgObject': {}, 'id': 'eggsalad', 'src': '/static/foodstim60/eggsalad.jpg', 'key': 'u', 'origWidth': 410, 'origHeight': 409, 'width': 410, 'height': 409, 'widthPercent': 0.45, 'rescaleHeight': False, 'trialN': 15, 'loaded': True, 'loadedTime': 5181, 'positionName': 'LEFT', 'positionCoords': [245.68, 179.5], 'bid': 0.18}, {'imgObject': {}, 'id': 'omelette', 'src': '/static/foodstim60/omelette.jpg', 'key': 'i', 'origWidth': 410, 'origHeight': 409, 'width': 410, 'height': 409, 'widthPercent': 0.45, 'rescaleHeight': False, 'trialN': 15, 'loaded': True, 'loadedTime': 5184.600000023842, 'positionName': 'RIGHT', 'positionCoords': [710.32, 179.5], 'bid': 0.28}]",40872.40000000596,1669840266365,eggsalad,omelette,0.18,0.28,0.10000000000000003,omelette,1735.0,1736,1736.0999999940395,True,i,43123.80000001192,2251.4000000059605,1669840268616,2251,HRV,HRV_0292,2022-11-30 20:35:54
16,"[{'imgObject': {}, 'id': 'olives', 'src': '/static/foodstim60/olives.jpg', 'key': 'u', 'origWidth': 410, 'origHeight': 410, 'width': 410, 'height': 410, 'widthPercent': 0.45, 'rescaleHeight': False, 'trialN': 16, 'loaded': True, 'loadedTime': 5301.4000000059605, 'positionName': 'LEFT', 'positionCoords': [245.68, 179], 'bid': 0.16}, {'imgObject': {}, 'id': 'lox', 'src': '/static/foodstim60/lox.jpg', 'key': 'i', 'origWidth': 410, 'origHeight': 411, 'width': 410, 'height': 411, 'widthPercent': 0.45, 'rescaleHeight': False, 'trialN': 16, 'loaded': True, 'loadedTime': 4365.4000000059605, 'positionName': 'RIGHT', 'positionCoords': [710.32, 178.5], 'bid': 0}]",43124.40000000596,1669840268617,olives,lox,0.16,0.0,-0.16,lox,2109.7000000178814,2111,2110.800000011921,True,i,45743.70000001788,2619.300000011921,1669840271236,2619,HRV,HRV_0292,2022-11-30 20:35:54
17,"[{'imgObject': {}, 'id': 'mac & cheese', 'src': '/static/foodstim60/mac & cheese.jpg', 'key': 'u', 'origWidth': 410, 'origHeight': 410, 'width': 410, 'height': 410, 'widthPercent': 0.45, 'rescaleHeight': False, 'trialN': 17, 'loaded': True, 'loadedTime': 5302.4000000059605, 'positionName': 'LEFT', 'positionCoords': [245.68, 179], 'bid': 0.19}, {'imgObject': {}, 'id': 'turkey sandwich', 'src': '/static/foodstim60/turkey sandwich.jpg', 'key': 'i', 'origWidth': 409, 'origHeight': 409, 'width': 409, 'height': 409, 'widthPercent': 0.45, 'rescaleHeight': False, 'trialN': 17, 'loaded': True, 'loadedTime': 5312.100000023842, 'positionName': 'RIGHT', 'positionCoords': [710.32, 179.5], 'bid': 0.3}]",45743.90000000596,1669840271237,mac & cheese,turkey sandwich,0.19,0.3,0.10999999999999999,turkey sandwich,1266.7000000178814,1267,1267.9000000059605,True,i,47522.20000001788,1778.300000011921,1669840273015,1778,HRV,HRV_0292,2022-11-30 20:35:54
18,"[{'imgObject': {}, 'id': 'cantaloupe', 'src': '/static/foodstim60/cantaloupe.jpg', 'key': 'u', 'origWidth': 409, 'origHeight': 409, 'width': 409, 'height': 409, 'widthPercent': 0.45, 'rescaleHeight': False, 'trialN': 18, 'loaded': True, 'loadedTime': 5343.200000017881, 'positionName': 'LEFT', 'positionCoords': [246.68, 179.5], 'bid': 0.1}, {'imgObject': {}, 'id': 'turkey sandwich', 'src': '/static/foodstim60/turkey sandwich.jpg', 'key': 'i', 'origWidth': 409, 'origHeight': 409, 'width': 409, 'height': 409, 'widthPercent': 0.45, 'rescaleHeight': False, 'trialN': 18, 'loaded': True, 'loadedTime': 5313.4000000059605, 'positionName': 'RIGHT', 'positionCoords': [710.32, 179.5], 'bid': 0.3}]",47522.80000001192,1669840273015,cantaloupe,turkey sandwich,0.1,0.3,0.19999999999999998,turkey sandwich,976.9000000059605,979,978.0,True,i,49013.80000001192,1491.0,1669840274506,1491,HRV,HRV_0292,2022-11-30 20:35:54
19,"[{'imgObject': {}, 'id': 'shreddedwheatwithmilk', 'src': '/static/foodstim60/shreddedwheatwithmilk.jpg', 'key': 'u', 'origWidth': 410, 'origHeight': 410, 'width': 410, 'height': 410, 'widthPercent': 0.45, 'rescaleHeight': False, 'trialN': 19, 'loaded': True, 'loadedTime': 4586.600000023842, 'positionName': 'LEFT', 'positionCoords': [245.68, 179], 'bid': 1.83}, {'imgObject': {}, 'id': 'sweetpotato', 'src': '/static/foodstim60/sweetpotato.jpg', 'key': 'i', 'origWidth': 410, 'origHeight': 410, 'width': 410, 'height': 410, 'widthPercent': 0.45, 'rescaleHeight': False, 'trialN': 19, 'loaded': True, 'loadedTime': 5353.4000000059605, 'positionName': 'RIGHT', 'positionCoords': [710.32, 179], 'bid': 0.09}]",49014.5,1669840274507,shreddedwheatwithmilk,sweetpotato,1.83,0.09,-1.74,shreddedwheatwithmilk,1185.2000000178814,1186,1186.2000000178814,True,u,50713.90000000596,1699.4000000059605,1669840276206,1699,HRV,HRV_0292,2022-11-30 20:35:54
20,"[{'imgObject': {}, 'id': 'olives', 'src': '/static/foodstim60/olives.jpg', 'key': 'u', 'origWidth': 410, 'origHeight': 410, 'width': 410, 'height': 410, 'widthPercent': 0.45, 'rescaleHeight': False, 'trialN': 20, 'loaded': True, 'loadedTime': 5250.9000000059605, 'positionName': 'LEFT', 'positionCoords': [245.68, 179], 'bid': 0.16}, {'imgObject': {}, 'id': 'rigatoni', 'src': '/static/foodstim60/rigatoni.jpg', 'key': 'i', 'origWidth': 411, 'origHeight': 411, 'width': 411, 'height': 411, 'widthPercent': 0.45, 'rescaleHeight': False, 'trialN': 20, 'loaded': True, 'loadedTime': 4678.200000017881, 'positionName': 'RIGHT', 'positionCoords': [710.32, 178.5], 'bid': 0.15}]",50714.40000000596,1669840276207,olives,rigatoni,0.16,0.15,-0.010000000000000009,rigatoni,1348.9000000059605,1350,1349.5,True,i,52582.90000000596,1868.5,1669840278076,1869,HRV,HRV_0292,2022-11-30 20:35:54
21,"[{'imgObject': {}, 'id': 'apple slices', 'src': '/static/foodstim60/apple slices.jpg', 'key': 'u', 'origWidth': 409, 'origHeight': 410, 'width': 409, 'height': 410, 'widthPercent': 0.45, 'rescaleHeight': False, 'trialN': 21, 'loaded': True, 'loadedTime': 5420.800000011921, 'positionName': 'LEFT', 'positionCoords': [246.68, 179], 'bid': 3.02}, {'imgObject': {}, 'id': 'orange slices', 'src': '/static/foodstim60/orange slices.jpg', 'key': 'i', 'origWidth': 409, 'origHeight': 410, 'width': 409, 'height': 410, 'widthPercent': 0.45, 'rescaleHeight': False, 'trialN': 21, 'loaded': True, 'loadedTime': 5428.700000017881, 'positionName': 'RIGHT', 'positionCoords': [710.32, 179], 'bid': 6.44}]",52583.30000001192,1669840278076,apple slices,orange slices,3.02,6.44,3.4200000000000004,orange slices,3191.800000011921,3194,3194.199999988079,True,i,56289.90000000596,3706.5999999940395,1669840281783,3707,HRV,HRV_0292,2022-11-30 20:35:54
22,"[{'imgObject': {}, 'id': 'hotdog w must', 'src': '/static/foodstim60/hotdog w must.jpg', 'key': 'u', 'origWidth': 409, 'origHeight': 409, 'width': 409, 'height': 409, 'widthPercent': 0.45, 'rescaleHeight': False, 'trialN': 22, 'loaded': True, 'loadedTime': 4289.700000017881, 'positionName': 'LEFT', 'positionCoords': [246.68, 179.5], 'bid': 0.1}, {'imgObject': {}, 'id': 'edamame', 'src': '/static/foodstim60/edamame.jpg', 'key': 'i', 'origWidth': 409, 'origHeight': 410, 'width': 409, 'height': 410, 'widthPercent': 0.45, 'rescaleHeight': False, 'trialN': 22, 'loaded': True, 'loadedTime': 5434.4000000059605, 'positionName': 'RIGHT', 'positionCoords': [710.32, 179], 'bid': 0.3}]",56290.5,1669840281783,hotdog w must,edamame,0.1,0.3,0.19999999999999998,hotdog w must,1846.300000011921,1849,1848.4000000059605,True,u,58654.10000002384,2363.600000023842,1669840284147,2364,HRV,HRV_0292,2022-11-30 20:35:54
23,"[{'imgObject': {}, 'id': 'Grapes', 'src': '/static/foodstim60/Grapes.jpg', 'key': 'u', 'origWidth': 411, 'origHeight': 411, 'width': 411, 'height': 411, 'widthPercent': 0.45, 'rescaleHeight': False, 'trialN': 23, 'loaded': True, 'loadedTime': 5029.800000011921, 'positionName': 'LEFT', 'positionCoords': [244.68, 178.5], 'bid': 7.95}, {'imgObject': {}, 'id': 'eggs', 'src': '/static/foodstim60/eggs.jpg', 'key': 'i', 'origWidth': 409, 'origHeight': 409, 'width': 409, 'height': 409, 'widthPercent': 0.45, 'rescaleHeight': False, 'trialN': 23, 'loaded': True, 'loadedTime': 5481.300000011921, 'positionName': 'RIGHT', 'positionCoords': [710.32, 179.5], 'bid': 3.18}]",58654.60000002384,1669840284147,Grapes,eggs,7.95,3.18,-4.77,Grapes,1400.699999988079,1402,1401.699999988079,True,u,60573.40000000596,1918.7999999821186,1669840286066,1919,HRV,HRV_0292,2022-11-30 20:35:54
24,"[{'imgObject': {}, 'id': 'blackbeanswithrice', 'src': '/static/foodstim60/blackbeanswithrice.jpg', 'key': 'u', 'origWidth': 410, 'origHeight': 410, 'width': 410, 'height': 410, 'widthPercent': 0.45, 'rescaleHeight': False, 'trialN': 24, 'loaded': True, 'loadedTime': 4798.800000011921, 'positionName': 'LEFT', 'positionCoords': [245.68, 179], 'bid': 1.13}, {'imgObject': {}, 'id': 'omelette', 'src': '/static/foodstim60/omelette.jpg', 'key': 'i', 'origWidth': 410, 'origHeight': 409, 'width': 410, 'height': 409, 'widthPercent': 0.45, 'rescaleHeight': False, 'trialN': 24, 'loaded': True, 'loadedTime': 5243.200000017881, 'positionName': 'RIGHT', 'positionCoords': [710.32, 179.5], 'bid': 0.28}]",60574.10000002384,1669840286067,blackbeanswithrice,omelette,1.13,0.28,-0.8499999999999999,blackbeanswithrice,1722.2999999821186,1723,1723.3999999761581,True,u,62808.80000001192,2234.699999988079,1669840288301,2234,HRV,HRV_0292,2022-11-30 20:35:54
25,"[{'imgObject': {}, 'id': 'Grapes', 'src': '/static/foodstim60/Grapes.jpg', 'key': 'u', 'origWidth': 411, 'origHeight': 411, 'width': 411, 'height': 411, 'widthPercent': 0.45, 'rescaleHeight': False, 'trialN': 25, 'loaded': True, 'loadedTime': 4998.800000011921, 'positionName': 'LEFT', 'positionCoords': [244.68, 178.5], 'bid': 7.95}, {'imgObject': {}, 'id': 'kiwi', 'src': '/static/foodstim60/kiwi.jpg', 'key': 'i', 'origWidth': 410, 'origHeight': 410, 'width': 410, 'height': 410, 'widthPercent': 0.45, 'rescaleHeight': False, 'trialN': 25, 'loaded': True, 'loadedTime': 5514.100000023842, 'positionName': 'RIGHT', 'positionCoords': [710.32, 179], 'bid': 7.63}]",62809.40000000596,1669840288302,Grapes,kiwi,7.95,7.63,-0.3200000000000003,kiwi,1180.9000000059605,1182,1182.0,True,i,64510.60000002384,1701.2000000178814,1669840290003,1701,HRV,HRV_0292,2022-11-30 20:35:54
26,"[{'imgObject': {}, 'id': 'bagel and cc', 'src': '/static/foodstim60/bagel and cc.jpg', 'key': 'u', 'origWidth': 410, 'origHeight': 410, 'width': 410, 'height': 410, 'widthPercent': 0.45, 'rescaleHeight': False, 'trialN': 26, 'loaded': True, 'loadedTime': 5517.300000011921, 'positionName': 'LEFT', 'positionCoords': [245.68, 179], 'bid': 5.3500000000000005}, {'imgObject': {}, 'id': 'pear', 'src': '/static/foodstim60/pear.jpg', 'key': 'i', 'origWidth': 411, 'origHeight': 410, 'width': 411, 'height': 410, 'widthPercent': 0.45, 'rescaleHeight': False, 'trialN': 26, 'loaded': True, 'loadedTime': 4946.9000000059605, 'positionName': 'RIGHT', 'positionCoords': [710.32, 179], 'bid': 4.15}]",64511.20000001788,1669840290004,bagel and cc,pear,5.3500000000000005,4.15,-1.2000000000000002,bagel and cc,1332.0999999940395,1333,1333.5,True,u,66361.70000001788,1850.5,1669840291854,1850,HRV,HRV_0292,2022-11-30 20:35:54
27,"[{'imgObject': {}, 'id': 'seaweed', 'src': '/static/foodstim60/seaweed.jpg', 'key': 'u', 'origWidth': 410, 'origHeight': 410, 'width': 410, 'height': 410, 'widthPercent': 0.45, 'rescaleHeight': False, 'trialN': 27, 'loaded': True, 'loadedTime': 4847.4000000059605, 'positionName': 'LEFT', 'positionCoords': [245.68, 179], 'bid': 0}, {'imgObject': {}, 'id': 'mashed potato', 'src': '/static/foodstim60/mashed potato.jpg', 'key': 'i', 'origWidth': 409, 'origHeight': 409, 'width': 409, 'height': 409, 'widthPercent': 0.45, 'rescaleHeight': False, 'trialN': 27, 'loaded': True, 'loadedTime': 5522, 'positionName': 'RIGHT', 'positionCoords': [710.32, 179.5], 'bid': 0.21}]",66362.5,1669840291855,seaweed,mashed potato,0.0,0.21,0.21,seaweed,1671.300000011921,1672,1671.9000000059605,True,u,68546.90000000596,2184.4000000059605,1669840294040,2185,HRV,HRV_0292,2022-11-30 20:35:54
28,"[{'imgObject': {}, 'id': 'popsicles', 'src': '/static/foodstim60/popsicles.jpg', 'key': 'u', 'origWidth': 410, 'origHeight': 410, 'width': 410, 'height': 410, 'widthPercent': 0.45, 'rescaleHeight': False, 'trialN': 28, 'loaded': True, 'loadedTime': 5927.800000011921, 'positionName': 'LEFT', 'positionCoords': [245.68, 179], 'bid': 3.41}, {'imgObject': {}, 'id': 'sushi w_condiments', 'src': '/static/foodstim60/sushi w_condiments.jpg', 'key': 'i', 'origWidth': 410, 'origHeight': 410, 'width': 410, 'height': 410, 'widthPercent': 0.45, 'rescaleHeight': False, 'trialN': 28, 'loaded': True, 'loadedTime': 4894.200000017881, 'positionName': 'RIGHT', 'positionCoords': [710.32, 179], 'bid': 2.5500000000000003}]",68547.10000002384,1669840294040,popsicles,sushi w_condiments,3.41,2.5500000000000003,-0.8599999999999999,popsicles,141.09999999403954,141,141.5,True,u,69197.5,650.3999999761581,1669840294690,650,HRV,HRV_0292,2022-11-30 20:35:54
29,"[{'imgObject': {}, 'id': 'salad w chicken', 'src': '/static/foodstim60/salad w chicken.jpg', 'key': 'u', 'origWidth': 411, 'origHeight': 411, 'width': 411, 'height': 411, 'widthPercent': 0.45, 'rescaleHeight': False, 'trialN': 29, 'loaded': True, 'loadedTime': 5582.800000011921, 'positionName': 'LEFT', 'positionCoords': [244.68, 178.5], 'bid': 2.61}, {'imgObject': {}, 'id': 'cheerios', 'src': '/static/foodstim60/cheerios.jpg', 'key': 'i', 'origWidth': 409, 'origHeight': 410, 'width': 409, 'height': 410, 'widthPercent': 0.45, 'rescaleHeight': False, 'trialN': 29, 'loaded': True, 'loadedTime': 5589.5, 'positionName': 'RIGHT', 'positionCoords': [710.32, 179], 'bid': 3.16}]",69198.30000001192,1669840294691,salad w chicken,cheerios,2.61,3.16,0.5500000000000003,salad w chicken,1765.800000011921,1767,1766.5999999940395,True,u,71468.5,2270.199999988079,1669840296961,2270,HRV,HRV_0292,2022-11-30 20:35:54
30,"[{'imgObject': {}, 'id': 'yogurt no spoon', 'src': '/static/foodstim60/yogurt no spoon.jpg', 'key': 'u', 'origWidth': 411, 'origHeight': 410, 'width': 411, 'height': 410, 'widthPercent': 0.45, 'rescaleHeight': False, 'trialN': 30, 'loaded': True, 'loadedTime': 5627.800000011921, 'positionName': 'LEFT', 'positionCoords': [244.68, 179], 'bid': 0.51}, {'imgObject': {}, 'id': 'olives', 'src': '/static/foodstim60/olives.jpg', 'key': 'i', 'origWidth': 410, 'origHeight': 410, 'width': 410, 'height': 410, 'widthPercent': 0.45, 'rescaleHeight': False, 'trialN': 30, 'loaded': True, 'loadedTime': 5250.600000023842, 'positionName': 'RIGHT', 'positionCoords': [710.32, 179], 'bid': 0.16}]",71469.0,1669840296962,yogurt no spoon,olives,0.51,0.16,-0.35,yogurt no spoon,1289.4000000059605,1296,1290.4000000059605,True,u,73268.60000002384,1799.6000000238419,1669840298768,1806,HRV,HRV_0292,2022-11-30 20:35:54
31,"[{'imgObject': {}, 'id': 'chicken nuggets2', 'src': '/static/foodstim60/chicken nuggets2.jpg', 'key': 'u', 'origWidth': 410, 'origHeight': 409, 'width': 410, 'height': 409, 'widthPercent': 0.45, 'rescaleHeight': False, 'trialN': 31, 'loaded': True, 'loadedTime': 4440, 'positionName': 'LEFT', 'positionCoords': [245.68, 179.5], 'bid': 1.57}, {'imgObject': {}, 'id': 'burrito', 'src': '/static/foodstim60/burrito.jpg', 'key': 'i', 'origWidth': 410, 'origHeight': 410, 'width': 410, 'height': 410, 'widthPercent': 0.45, 'rescaleHeight': False, 'trialN': 31, 'loaded': True, 'loadedTime': 5635.5, 'positionName': 'RIGHT', 'positionCoords': [710.32, 179], 'bid': 0.05}]",73269.10000002384,1669840298768,chicken nuggets2,burrito,1.57,0.05,-1.52,chicken nuggets2,839.6999999880791,841,840.8999999761581,True,u,74610.80000001192,1341.699999988079,1669840300110,1342,HRV,HRV_0292,2022-11-30 20:35:54
32,"[{'imgObject': {}, 'id': 'banana', 'src': '/static/foodstim60/banana.jpg', 'key': 'u', 'origWidth': 410, 'origHeight': 410, 'width': 410, 'height': 410, 'widthPercent': 0.45, 'rescaleHeight': False, 'trialN': 32, 'loaded': True, 'loadedTime': 5123.600000023842, 'positionName': 'LEFT', 'positionCoords': [245.68, 179], 'bid': 5.04}, {'imgObject': {}, 'id': 'salad w chicken', 'src': '/static/foodstim60/salad w chicken.jpg', 'key': 'i', 'origWidth': 411, 'origHeight': 411, 'width': 411, 'height': 411, 'widthPercent': 0.45, 'rescaleHeight': False, 'trialN': 32, 'loaded': True, 'loadedTime': 5575.800000011921, 'positionName': 'RIGHT', 'positionCoords': [710.32, 178.5], 'bid': 2.61}]",74611.20000001788,1669840300110,banana,salad w chicken,5.04,2.61,-2.43,banana,2017.5999999940395,2019,2018.5999999940395,True,u,77130.80000001192,2519.5999999940395,1669840302630,2520,HRV,HRV_0292,2022-11-30 20:35:54
33,"[{'imgObject': {}, 'id': 'luckycharms', 'src': '/static/foodstim60/luckycharms.jpg', 'key': 'u', 'origWidth': 410, 'origHeight': 409, 'width': 410, 'height': 409, 'widthPercent': 0.45, 'rescaleHeight': False, 'trialN': 33, 'loaded': True, 'loadedTime': 5641.600000023842, 'positionName': 'LEFT', 'positionCoords': [245.68, 179.5], 'bid': 0.98}, {'imgObject': {}, 'id': 'Grapes', 'src': '/static/foodstim60/Grapes.jpg', 'key': 'i', 'origWidth': 411, 'origHeight': 411, 'width': 411, 'height': 411, 'widthPercent': 0.45, 'rescaleHeight': False, 'trialN': 33, 'loaded': True, 'loadedTime': 5029.100000023842, 'positionName': 'RIGHT', 'positionCoords': [710.32, 178.5], 'bid': 7.95}]",77131.30000001192,1669840302630,luckycharms,Grapes,0.98,7.95,6.970000000000001,Grapes,746.0,747,747.0,True,i,78378.80000001192,1247.5,1669840303878,1248,HRV,HRV_0292,2022-11-30 20:35:54
34,"[{'imgObject': {}, 'id': 'corn cob', 'src': '/static/foodstim60/corn cob.jpg', 'key': 'u', 'origWidth': 411, 'origHeight': 411, 'width': 411, 'height': 411, 'widthPercent': 0.45, 'rescaleHeight': False, 'trialN': 34, 'loaded': True, 'loadedTime': 4810.700000017881, 'positionName': 'LEFT', 'positionCoords': [244.68, 178.5], 'bid': 0}, {'imgObject': {}, 'id': 'veggieswithdip', 'src': '/static/foodstim60/veggieswithdip.jpg', 'key': 'i', 'origWidth': 409, 'origHeight': 409, 'width': 409, 'height': 409, 'widthPercent': 0.45, 'rescaleHeight': False, 'trialN': 34, 'loaded': True, 'loadedTime': 5704.200000017881, 'positionName': 'RIGHT', 'positionCoords': [710.32, 179.5], 'bid': 0.18}]",78379.40000000596,1669840303878,corn cob,veggieswithdip,0.0,0.18,0.18,corn cob,1315.0,1319,1318.300000011921,True,u,80202.90000000596,1823.5,1669840305702,1824,HRV,HRV_0292,2022-11-30 20:35:54
35,"[{'imgObject': {}, 'id': 'rigatoni and sauce', 'src': '/static/foodstim60/rigatoni and sauce.jpg', 'key': 'u', 'origWidth': 410, 'origHeight': 411, 'width': 410, 'height': 411, 'widthPercent': 0.45, 'rescaleHeight': False, 'trialN': 35, 'loaded': True, 'loadedTime': 5707.700000017881, 'positionName': 'LEFT', 'positionCoords': [245.68, 178.5], 'bid': 0.15}, {'imgObject': {}, 'id': 'hashbrowns', 'src': '/static/foodstim60/hashbrowns.jpg', 'key': 'i', 'origWidth': 411, 'origHeight': 410, 'width': 411, 'height': 410, 'widthPercent': 0.45, 'rescaleHeight': False, 'trialN': 35, 'loaded': True, 'loadedTime': 5714.300000011921, 'positionName': 'RIGHT', 'positionCoords': [710.32, 179], 'bid': 0.24}]",80203.5,1669840305702,rigatoni and sauce,hashbrowns,0.15,0.24,0.09,rigatoni and sauce,2222.300000011921,2224,2223.4000000059605,True,u,82931.0,2727.5,1669840308430,2728,HRV,HRV_0292,2022-11-30 20:35:54
36,"[{'imgObject': {}, 'id': 'corn cob', 'src': '/static/foodstim60/corn cob.jpg', 'key': 'u', 'origWidth': 411, 'origHeight': 411, 'width': 411, 'height': 411, 'widthPercent': 0.45, 'rescaleHeight': False, 'trialN': 36, 'loaded': True, 'loadedTime': 4841.100000023842, 'positionName': 'LEFT', 'positionCoords': [244.68, 178.5], 'bid': 0}, {'imgObject': {}, 'id': 'ice cream sundae 002', 'src': '/static/foodstim60/ice cream sundae 002.jpg', 'key': 'i', 'origWidth': 409, 'origHeight': 409, 'width': 409, 'height': 409, 'widthPercent': 0.45, 'rescaleHeight': False, 'trialN': 36, 'loaded': True, 'loadedTime': 5742.4000000059605, 'positionName': 'RIGHT', 'positionCoords': [710.32, 179.5], 'bid': 0.22}]",82931.60000002384,1669840308431,corn cob,ice cream sundae 002,0.0,0.22,0.22,ice cream sundae 002,1812.5999999940395,1813,1813.2999999821186,True,i,85251.10000002384,2319.5,1669840310750,2319,HRV,HRV_0292,2022-11-30 20:35:54
37,"[{'imgObject': {}, 'id': 'lox', 'src': '/static/foodstim60/lox.jpg', 'key': 'u', 'origWidth': 410, 'origHeight': 411, 'width': 410, 'height': 411, 'widthPercent': 0.45, 'rescaleHeight': False, 'trialN': 37, 'loaded': True, 'loadedTime': 4364.9000000059605, 'positionName': 'LEFT', 'positionCoords': [245.68, 178.5], 'bid': 0}, {'imgObject': {}, 'id': 'turkeysandwich', 'src': '/static/foodstim60/turkeysandwich.jpg', 'key': 'i', 'origWidth': 409, 'origHeight': 409, 'width': 409, 'height': 409, 'widthPercent': 0.45, 'rescaleHeight': False, 'trialN': 37, 'loaded': True, 'loadedTime': 4633.4000000059605, 'positionName': 'RIGHT', 'positionCoords': [710.32, 179.5], 'bid': 0}]",85251.70000001788,1669840310751,lox,turkeysandwich,0.0,0.0,0.0,turkeysandwich,2123.699999988079,2125,2125.0,True,i,87883.30000001192,2631.5999999940395,1669840313382,2631,HRV,HRV_0292,2022-11-30 20:35:54
38,"[{'imgObject': {}, 'id': 'froot loops w milk', 'src': '/static/foodstim60/froot loops w milk.jpg', 'key': 'u', 'origWidth': 410, 'origHeight': 410, 'width': 410, 'height': 410, 'widthPercent': 0.45, 'rescaleHeight': False, 'trialN': 38, 'loaded': True, 'loadedTime': 5749.800000011921, 'positionName': 'LEFT', 'positionCoords': [245.68, 179], 'bid': 3.53}, {'imgObject': {}, 'id': 'mashed potato', 'src': '/static/foodstim60/mashed potato.jpg', 'key': 'i', 'origWidth': 409, 'origHeight': 409, 'width': 409, 'height': 409, 'widthPercent': 0.45, 'rescaleHeight': False, 'trialN': 38, 'loaded': True, 'loadedTime': 5520.700000017881, 'positionName': 'RIGHT', 'positionCoords': [710.32, 179.5], 'bid': 0.21}]",87883.80000001192,1669840313383,froot loops w milk,mashed potato,3.53,0.21,-3.32,froot loops w milk,1040.199999988079,1041,1041.300000011921,True,u,89427.30000001192,1543.5,1669840314926,1543,HRV,HRV_0292,2022-11-30 20:35:54
39,"[{'imgObject': {}, 'id': 'grilled chicken strips', 'src': '/static/foodstim60/grilled chicken strips.jpg', 'key': 'u', 'origWidth': 410, 'origHeight': 411, 'width': 410, 'height': 411, 'widthPercent': 0.45, 'rescaleHeight': False, 'trialN': 39, 'loaded': True, 'loadedTime': 5756.200000017881, 'positionName': 'LEFT', 'positionCoords': [245.68, 178.5], 'bid': 0.6}, {'imgObject': {}, 'id': 'blackbeanswithrice', 'src': '/static/foodstim60/blackbeanswithrice.jpg', 'key': 'i', 'origWidth': 410, 'origHeight': 410, 'width': 410, 'height': 410, 'widthPercent': 0.45, 'rescaleHeight': False, 'trialN': 39, 'loaded': True, 'loadedTime': 4742.200000017881, 'positionName': 'RIGHT', 'positionCoords': [710.32, 179], 'bid': 1.13}]",89428.0,1669840314927,grilled chicken strips,blackbeanswithrice,0.6,1.13,0.5299999999999999,blackbeanswithrice,1316.1000000238419,1318,1317.6000000238419,True,i,91251.30000001192,1823.300000011921,1669840316750,1823,HRV,HRV_0292,2022-11-30 20:35:54
40,"[{'imgObject': {}, 'id': 'veggieswithdip', 'src': '/static/foodstim60/veggieswithdip.jpg', 'key': 'u', 'origWidth': 409, 'origHeight': 409, 'width': 409, 'height': 409, 'widthPercent': 0.45, 'rescaleHeight': False, 'trialN': 40, 'loaded': True, 'loadedTime': 5704.600000023842, 'positionName': 'LEFT', 'positionCoords': [246.68, 179.5], 'bid': 0.18}, {'imgObject': {}, 'id': 'cheerios', 'src': '/static/foodstim60/cheerios.jpg', 'key': 'i', 'origWidth': 409, 'origHeight': 410, 'width': 409, 'height': 410, 'widthPercent': 0.45, 'rescaleHeight': False, 'trialN': 40, 'loaded': True, 'loadedTime': 5588.600000023842, 'positionName': 'RIGHT', 'positionCoords': [710.32, 179], 'bid': 3.16}]",91251.90000000596,1669840316751,veggieswithdip,cheerios,0.18,3.16,2.98,cheerios,730.9000000059605,732,731.9000000059605,True,i,92491.40000000596,1239.5,1669840317990,1239,HRV,HRV_0292,2022-11-30 20:35:54
41,"[{'imgObject': {}, 'id': 'fried eggs', 'src': '/static/foodstim60/fried eggs.jpg', 'key': 'u', 'origWidth': 410, 'origHeight': 410, 'width': 410, 'height': 410, 'widthPercent': 0.45, 'rescaleHeight': False, 'trialN': 41, 'loaded': True, 'loadedTime': 4490.4000000059605, 'positionName': 'LEFT', 'positionCoords': [245.68, 179], 'bid': 5.92}, {'imgObject': {}, 'id': 'cherries', 'src': '/static/foodstim60/cherries.jpg', 'key': 'i', 'origWidth': 410, 'origHeight': 411, 'width': 410, 'height': 411, 'widthPercent': 0.45, 'rescaleHeight': False, 'trialN': 41, 'loaded': True, 'loadedTime': 5759.300000011921, 'positionName': 'RIGHT', 'positionCoords': [710.32, 178.5], 'bid': 0.46}]",92492.0,1669840317991,fried eggs,cherries,5.92,0.46,-5.46,fried eggs,875.2000000178814,877,877.0,True,u,93874.60000002384,1382.6000000238419,1669840319374,1383,HRV,HRV_0292,2022-11-30 20:35:54
42,"[{'imgObject': {}, 'id': 'Grapes', 'src': '/static/foodstim60/Grapes.jpg', 'key': 'u', 'origWidth': 411, 'origHeight': 411, 'width': 411, 'height': 411, 'widthPercent': 0.45, 'rescaleHeight': False, 'trialN': 42, 'loaded': True, 'loadedTime': 4999.700000017881, 'positionName': 'LEFT', 'positionCoords': [244.68, 178.5], 'bid': 7.95}, {'imgObject': {}, 'id': 'cocktailshrimp', 'src': '/static/foodstim60/cocktailshrimp.jpg', 'key': 'i', 'origWidth': 410, 'origHeight': 410, 'width': 410, 'height': 410, 'widthPercent': 0.45, 'rescaleHeight': False, 'trialN': 42, 'loaded': True, 'loadedTime': 5798.9000000059605, 'positionName': 'RIGHT', 'positionCoords': [710.32, 179], 'bid': 4.83}]",93875.10000002384,1669840319374,Grapes,cocktailshrimp,7.95,4.83,-3.12,Grapes,820.3999999761581,821,821.3999999761581,True,u,95202.60000002384,1327.5,1669840320701,1327,HRV,HRV_0292,2022-11-30 20:35:54
43,"[{'imgObject': {}, 'id': 'rigatoni', 'src': '/static/foodstim60/rigatoni.jpg', 'key': 'u', 'origWidth': 411, 'origHeight': 411, 'width': 411, 'height': 411, 'widthPercent': 0.45, 'rescaleHeight': False, 'trialN': 43, 'loaded': True, 'loadedTime': 4637.100000023842, 'positionName': 'LEFT', 'positionCoords': [244.68, 178.5], 'bid': 0.15}, {'imgObject': {}, 'id': 'burrito', 'src': '/static/foodstim60/burrito.jpg', 'key': 'i', 'origWidth': 410, 'origHeight': 410, 'width': 410, 'height': 410, 'widthPercent': 0.45, 'rescaleHeight': False, 'trialN': 43, 'loaded': True, 'loadedTime': 5634.200000017881, 'positionName': 'RIGHT', 'positionCoords': [710.32, 179], 'bid': 0.05}]",95203.10000002384,1669840320702,rigatoni,burrito,0.15,0.05,-0.09999999999999999,rigatoni,1011.5,1013,1013.0999999940395,True,u,96722.60000002384,1519.5,1669840322222,1520,HRV,HRV_0292,2022-11-30 20:35:54
44,"[{'imgObject': {}, 'id': 'edamame', 'src': '/static/foodstim60/edamame.jpg', 'key': 'u', 'origWidth': 409, 'origHeight': 410, 'width': 409, 'height': 410, 'widthPercent': 0.45, 'rescaleHeight': False, 'trialN': 44, 'loaded': True, 'loadedTime': 5432.800000011921, 'positionName': 'LEFT', 'positionCoords': [246.68, 179], 'bid': 0.3}, {'imgObject': {}, 'id': 'baked potato', 'src': '/static/foodstim60/baked potato.jpg', 'key': 'i', 'origWidth': 409, 'origHeight': 410, 'width': 409, 'height': 410, 'widthPercent': 0.45, 'rescaleHeight': False, 'trialN': 44, 'loaded': True, 'loadedTime': 5803.800000011921, 'positionName': 'RIGHT', 'positionCoords': [710.32, 179], 'bid': 0.38}]",96723.30000001192,1669840322222,edamame,baked potato,0.3,0.38,0.08000000000000002,baked potato,1142.699999988079,1144,1143.800000011921,True,i,98370.70000001788,1647.4000000059605,1669840323870,1648,HRV,HRV_0292,2022-11-30 20:35:54
45,"[{'imgObject': {}, 'id': 'tacos', 'src': '/static/foodstim60/tacos.jpg', 'key': 'u', 'origWidth': 411, 'origHeight': 411, 'width': 411, 'height': 411, 'widthPercent': 0.45, 'rescaleHeight': False, 'trialN': 45, 'loaded': True, 'loadedTime': 5080, 'positionName': 'LEFT', 'positionCoords': [244.68, 178.5], 'bid': 2.1}, {'imgObject': {}, 'id': 'cantaloupe', 'src': '/static/foodstim60/cantaloupe.jpg', 'key': 'i', 'origWidth': 409, 'origHeight': 409, 'width': 409, 'height': 409, 'widthPercent': 0.45, 'rescaleHeight': False, 'trialN': 45, 'loaded': True, 'loadedTime': 5345.200000017881, 'positionName': 'RIGHT', 'positionCoords': [710.32, 179.5], 'bid': 0.1}]",98371.30000001192,1669840323870,tacos,cantaloupe,2.1,0.1,-2.0,tacos,1004.1999999880791,1007,1006.4000000059605,True,u,99882.80000001192,1511.5,1669840325382,1512,HRV,HRV_0292,2022-11-30 20:35:54
46,"[{'imgObject': {}, 'id': 'cherries', 'src': '/static/foodstim60/cherries.jpg', 'key': 'u', 'origWidth': 410, 'origHeight': 411, 'width': 410, 'height': 411, 'widthPercent': 0.45, 'rescaleHeight': False, 'trialN': 46, 'loaded': True, 'loadedTime': 5795, 'positionName': 'LEFT', 'positionCoords': [245.68, 178.5], 'bid': 0.46}, {'imgObject': {}, 'id': 'cherry tomato', 'src': '/static/foodstim60/cherry tomato.jpg', 'key': 'i', 'origWidth': 410, 'origHeight': 410, 'width': 410, 'height': 410, 'widthPercent': 0.45, 'rescaleHeight': False, 'trialN': 46, 'loaded': True, 'loadedTime': 4851.4000000059605, 'positionName': 'RIGHT', 'positionCoords': [710.32, 179], 'bid': 0.4}]",99883.30000001192,1669840325382,cherries,cherry tomato,0.46,0.4,-0.06,cherries,2609.4000000059605,2610,2610.0999999940395,True,u,102995.0,3111.699999988079,1669840328494,3112,HRV,HRV_0292,2022-11-30 20:35:54
47,"[{'imgObject': {}, 'id': 'blueberries', 'src': '/static/foodstim60/blueberries.jpg', 'key': 'u', 'origWidth': 411, 'origHeight': 411, 'width': 411, 'height': 411, 'widthPercent': 0.45, 'rescaleHeight': False, 'trialN': 47, 'loaded': True, 'loadedTime': 5805.9000000059605, 'positionName': 'LEFT', 'positionCoords': [244.68, 178.5], 'bid': 2.48}, {'imgObject': {}, 'id': 'strawberries', 'src': '/static/foodstim60/strawberries.jpg', 'key': 'i', 'origWidth': 410, 'origHeight': 410, 'width': 410, 'height': 410, 'widthPercent': 0.45, 'rescaleHeight': False, 'trialN': 47, 'loaded': True, 'loadedTime': 5824.4000000059605, 'positionName': 'RIGHT', 'positionCoords': [710.32, 179], 'bid': 2.54}]",102995.60000002384,1669840328494,blueberries,strawberries,2.48,2.54,0.06000000000000005,strawberries,1517.5999999940395,1519,1518.699999988079,True,i,105019.20000001788,2023.5999999940395,1669840330518,2024,HRV,HRV_0292,2022-11-30 20:35:54
48,"[{'imgObject': {}, 'id': 'pear', 'src': '/static/foodstim60/pear.jpg', 'key': 'u', 'origWidth': 411, 'origHeight': 410, 'width': 411, 'height': 410, 'widthPercent': 0.45, 'rescaleHeight': False, 'trialN': 48, 'loaded': True, 'loadedTime': 4946, 'positionName': 'LEFT', 'positionCoords': [244.68, 179], 'bid': 4.15}, {'imgObject': {}, 'id': 'kiwi', 'src': '/static/foodstim60/kiwi.jpg', 'key': 'i', 'origWidth': 410, 'origHeight': 410, 'width': 410, 'height': 410, 'widthPercent': 0.45, 'rescaleHeight': False, 'trialN': 48, 'loaded': True, 'loadedTime': 5492.100000023842, 'positionName': 'RIGHT', 'positionCoords': [710.32, 179], 'bid': 7.63}]",105019.5,1669840330518,pear,kiwi,4.15,7.63,3.4799999999999995,kiwi,826.4000000059605,828,827.7000000178814,True,i,106355.10000002384,1335.6000000238419,1669840331854,1336,HRV,HRV_0292,2022-11-30 20:35:54
49,"[{'imgObject': {}, 'id': 'blackbeanswithrice', 'src': '/static/foodstim60/blackbeanswithrice.jpg', 'key': 'u', 'origWidth': 410, 'origHeight': 410, 'width': 410, 'height': 410, 'widthPercent': 0.45, 'rescaleHeight': False, 'trialN': 49, 'loaded': True, 'loadedTime': 4798.100000023842, 'positionName': 'LEFT', 'positionCoords': [245.68, 179], 'bid': 1.13}, {'imgObject': {}, 'id': 'granola w milk', 'src': '/static/foodstim60/granola w milk.jpg', 'key': 'i', 'origWidth': 410, 'origHeight': 410, 'width': 410, 'height': 410, 'widthPercent': 0.45, 'rescaleHeight': False, 'trialN': 49, 'loaded': True, 'loadedTime': 5829.700000017881, 'positionName': 'RIGHT', 'positionCoords': [710.32, 179], 'bid': 3.28}]",106355.70000001788,1669840331855,blackbeanswithrice,granola w milk,1.13,3.28,2.15,granola w milk,1992.699999988079,1994,1994.199999988079,True,i,108851.20000001788,2495.5,1669840334350,2495,HRV,HRV_0292,2022-11-30 20:35:54
50,"[{'imgObject': {}, 'id': 'raspberries', 'src': '/static/foodstim60/raspberries.jpg', 'key': 'u', 'origWidth': 411, 'origHeight': 411, 'width': 411, 'height': 411, 'widthPercent': 0.45, 'rescaleHeight': False, 'trialN': 50, 'loaded': True, 'loadedTime': 4683.800000011921, 'positionName': 'LEFT', 'positionCoords': [244.68, 178.5], 'bid': 1.51}, {'imgObject': {}, 'id': 'corn cob', 'src': '/static/foodstim60/corn cob.jpg', 'key': 'i', 'origWidth': 411, 'origHeight': 411, 'width': 411, 'height': 411, 'widthPercent': 0.45, 'rescaleHeight': False, 'trialN': 50, 'loaded': True, 'loadedTime': 4810.200000017881, 'positionName': 'RIGHT', 'positionCoords': [710.32, 178.5], 'bid': 0}]",108851.70000001788,1669840334351,raspberries,corn cob,1.51,0.0,-1.51,raspberries,1111.0999999940395,1112,1112.0999999940395,True,u,110467.40000000596,1615.699999988079,1669840335966,1615,HRV,HRV_0292,2022-11-30 20:35:54
51,"[{'imgObject': {}, 'id': 'seaweed', 'src': '/static/foodstim60/seaweed.jpg', 'key': 'u', 'origWidth': 410, 'origHeight': 410, 'width': 410, 'height': 410, 'widthPercent': 0.45, 'rescaleHeight': False, 'trialN': 51, 'loaded': True, 'loadedTime': 4842.300000011921, 'positionName': 'LEFT', 'positionCoords': [245.68, 179], 'bid': 0}, {'imgObject': {}, 'id': 'Tribe humus pita', 'src': '/static/foodstim60/Tribe humus pita.jpg', 'key': 'i', 'origWidth': 411, 'origHeight': 411, 'width': 411, 'height': 411, 'widthPercent': 0.45, 'rescaleHeight': False, 'trialN': 51, 'loaded': True, 'loadedTime': 5846.800000011921, 'positionName': 'RIGHT', 'positionCoords': [710.32, 178.5], 'bid': 0.16}]",110467.80000001192,1669840335967,seaweed,Tribe humus pita,0.0,0.16,0.16,seaweed,1000.0999999940395,1001,1001.4000000059605,True,u,111971.40000000596,1503.5999999940395,1669840337470,1503,HRV,HRV_0292,2022-11-30 20:35:54
52,"[{'imgObject': {}, 'id': 'bagel plain', 'src': '/static/foodstim60/bagel plain.jpg', 'key': 'u', 'origWidth': 410, 'origHeight': 410, 'width': 410, 'height': 410, 'widthPercent': 0.45, 'rescaleHeight': False, 'trialN': 52, 'loaded': True, 'loadedTime': 4989.9000000059605, 'positionName': 'LEFT', 'positionCoords': [245.68, 179], 'bid': 5.0200000000000005}, {'imgObject': {}, 'id': 'omelette', 'src': '/static/foodstim60/omelette.jpg', 'key': 'i', 'origWidth': 410, 'origHeight': 409, 'width': 410, 'height': 409, 'widthPercent': 0.45, 'rescaleHeight': False, 'trialN': 52, 'loaded': True, 'loadedTime': 5244.200000017881, 'positionName': 'RIGHT', 'positionCoords': [710.32, 179.5], 'bid': 0.28}]",111972.0,1669840337471,bagel plain,omelette,5.0200000000000005,0.28,-4.74,bagel plain,989.3000000119209,990,990.4000000059605,True,u,113467.30000001192,1495.300000011921,1669840338966,1495,HRV,HRV_0292,2022-11-30 20:35:54
53,"[{'imgObject': {}, 'id': 'mango', 'src': '/static/foodstim60/mango.jpg', 'key': 'u', 'origWidth': 411, 'origHeight': 411, 'width': 411, 'height': 411, 'widthPercent': 0.45, 'rescaleHeight': False, 'trialN': 53, 'loaded': True, 'loadedTime': 5895.300000011921, 'positionName': 'LEFT', 'positionCoords': [244.68, 178.5], 'bid': 1.16}, {'imgObject': {}, 'id': 'cherries', 'src': '/static/foodstim60/cherries.jpg', 'key': 'i', 'origWidth': 410, 'origHeight': 411, 'width': 410, 'height': 411, 'widthPercent': 0.45, 'rescaleHeight': False, 'trialN': 53, 'loaded': True, 'loadedTime': 5759.9000000059605, 'positionName': 'RIGHT', 'positionCoords': [710.32, 178.5], 'bid': 0.46}]",113468.10000002384,1669840338967,mango,cherries,1.16,0.46,-0.7,mango,1065.699999988079,1067,1066.7999999821186,True,u,115035.60000002384,1567.5,1669840340534,1567,HRV,HRV_0292,2022-11-30 20:35:54
54,"[{'imgObject': {}, 'id': 'turkey sandwich', 'src': '/static/foodstim60/turkey sandwich.jpg', 'key': 'u', 'origWidth': 409, 'origHeight': 409, 'width': 409, 'height': 409, 'widthPercent': 0.45, 'rescaleHeight': False, 'trialN': 54, 'loaded': True, 'loadedTime': 5339.300000011921, 'positionName': 'LEFT', 'positionCoords': [246.68, 179.5], 'bid': 0.3}, {'imgObject': {}, 'id': 'baked potato', 'src': '/static/foodstim60/baked potato.jpg', 'key': 'i', 'origWidth': 409, 'origHeight': 410, 'width': 409, 'height': 410, 'widthPercent': 0.45, 'rescaleHeight': False, 'trialN': 54, 'loaded': True, 'loadedTime': 5800.300000011921, 'positionName': 'RIGHT', 'positionCoords': [710.32, 179], 'bid': 0.38}]",115036.5,1669840340535,turkey sandwich,baked potato,0.3,0.38,0.08000000000000002,turkey sandwich,956.7000000178814,958,957.2000000178814,True,u,116498.5,1462.0,1669840341997,1462,HRV,HRV_0292,2022-11-30 20:35:54
55,"[{'imgObject': {}, 'id': 'Tribe humus pita', 'src': '/static/foodstim60/Tribe humus pita.jpg', 'key': 'u', 'origWidth': 411, 'origHeight': 411, 'width': 411, 'height': 411, 'widthPercent': 0.45, 'rescaleHeight': False, 'trialN': 55, 'loaded': True, 'loadedTime': 5832.100000023842, 'positionName': 'LEFT', 'positionCoords': [244.68, 178.5], 'bid': 0.16}, {'imgObject': {}, 'id': 'apple slices', 'src': '/static/foodstim60/apple slices.jpg', 'key': 'i', 'origWidth': 409, 'origHeight': 410, 'width': 409, 'height': 410, 'widthPercent': 0.45, 'rescaleHeight': False, 'trialN': 55, 'loaded': True, 'loadedTime': 5361.200000017881, 'positionName': 'RIGHT', 'positionCoords': [710.32, 179], 'bid': 3.02}]",116499.10000002384,1669840341998,Tribe humus pita,apple slices,0.16,3.02,2.86,apple slices,987.0,988,987.8999999761581,True,i,117994.60000002384,1495.5,1669840343494,1496,HRV,HRV_0292,2022-11-30 20:35:54
56,"[{'imgObject': {}, 'id': 'raisin bran w milk', 'src': '/static/foodstim60/raisin bran w milk.jpg', 'key': 'u', 'origWidth': 411, 'origHeight': 411, 'width': 411, 'height': 411, 'widthPercent': 0.45, 'rescaleHeight': False, 'trialN': 56, 'loaded': True, 'loadedTime': 4537.700000017881, 'positionName': 'LEFT', 'positionCoords': [244.68, 178.5], 'bid': 5.33}, {'imgObject': {}, 'id': 'blueberries', 'src': '/static/foodstim60/blueberries.jpg', 'key': 'i', 'origWidth': 411, 'origHeight': 411, 'width': 411, 'height': 411, 'widthPercent': 0.45, 'rescaleHeight': False, 'trialN': 56, 'loaded': True, 'loadedTime': 5817.100000023842, 'positionName': 'RIGHT', 'positionCoords': [710.32, 178.5], 'bid': 2.48}]",117995.30000001192,1669840343494,raisin bran w milk,blueberries,5.33,2.48,-2.85,raisin bran w milk,736.5999999940395,738,737.4000000059605,True,u,119234.80000001192,1239.5,1669840344734,1240,HRV,HRV_0292,2022-11-30 20:35:54
57,"[{'imgObject': {}, 'id': 'banana', 'src': '/static/foodstim60/banana.jpg', 'key': 'u', 'origWidth': 410, 'origHeight': 410, 'width': 410, 'height': 410, 'widthPercent': 0.45, 'rescaleHeight': False, 'trialN': 57, 'loaded': True, 'loadedTime': 5123, 'positionName': 'LEFT', 'positionCoords': [245.68, 179], 'bid': 5.04}, {'imgObject': {}, 'id': 'turkey sandwich', 'src': '/static/foodstim60/turkey sandwich.jpg', 'key': 'i', 'origWidth': 409, 'origHeight': 409, 'width': 409, 'height': 409, 'widthPercent': 0.45, 'rescaleHeight': False, 'trialN': 57, 'loaded': True, 'loadedTime': 5308.300000011921, 'positionName': 'RIGHT', 'positionCoords': [710.32, 179.5], 'bid': 0.3}]",119235.30000001192,1669840344734,banana,turkey sandwich,5.04,0.3,-4.74,banana,799.6999999880791,801,800.9000000059605,True,u,120538.80000001192,1303.5,1669840346038,1304,HRV,HRV_0292,2022-11-30 20:35:54
58,"[{'imgObject': {}, 'id': 'kiwi', 'src': '/static/foodstim60/kiwi.jpg', 'key': 'u', 'origWidth': 410, 'origHeight': 410, 'width': 410, 'height': 410, 'widthPercent': 0.45, 'rescaleHeight': False, 'trialN': 58, 'loaded': True, 'loadedTime': 5514.5, 'positionName': 'LEFT', 'positionCoords': [245.68, 179], 'bid': 7.63}, {'imgObject': {}, 'id': 'grilled chicken strips', 'src': '/static/foodstim60/grilled chicken strips.jpg', 'key': 'i', 'origWidth': 410, 'origHeight': 411, 'width': 410, 'height': 411, 'widthPercent': 0.45, 'rescaleHeight': False, 'trialN': 58, 'loaded': True, 'loadedTime': 5755.800000011921, 'positionName': 'RIGHT', 'positionCoords': [710.32, 178.5], 'bid': 0.6}]",120539.30000001192,1669840346038,kiwi,grilled chicken strips,7.63,0.6,-7.03,kiwi,673.3000000119209,674,674.1999999880791,True,u,121714.90000000596,1175.5999999940395,1669840347214,1176,HRV,HRV_0292,2022-11-30 20:35:54
59,"[{'imgObject': {}, 'id': 'orange slices', 'src': '/static/foodstim60/orange slices.jpg', 'key': 'u', 'origWidth': 409, 'origHeight': 410, 'width': 409, 'height': 410, 'widthPercent': 0.45, 'rescaleHeight': False, 'trialN': 59, 'loaded': True, 'loadedTime': 5427.800000011921, 'positionName': 'LEFT', 'positionCoords': [246.68, 179], 'bid': 6.44}, {'imgObject': {}, 'id': 'burger', 'src': '/static/foodstim60/burger.jpg', 'key': 'i', 'origWidth': 409, 'origHeight': 409, 'width': 409, 'height': 409, 'widthPercent': 0.45, 'rescaleHeight': False, 'trialN': 59, 'loaded': True, 'loadedTime': 4737.700000017881, 'positionName': 'RIGHT', 'positionCoords': [710.32, 179.5], 'bid': 0.56}]",121715.40000000596,1669840347214,orange slices,burger,6.44,0.56,-5.880000000000001,orange slices,1008.4000000059605,1010,1009.4000000059605,True,u,123226.80000001192,1511.4000000059605,1669840348726,1512,HRV,HRV_0292,2022-11-30 20:35:54
60,"[{'imgObject': {}, 'id': 'eggsalad', 'src': '/static/foodstim60/eggsalad.jpg', 'key': 'u', 'origWidth': 410, 'origHeight': 409, 'width': 410, 'height': 409, 'widthPercent': 0.45, 'rescaleHeight': False, 'trialN': 60, 'loaded': True, 'loadedTime': 5124.9000000059605, 'positionName': 'LEFT', 'positionCoords': [245.68, 179.5], 'bid': 0.18}, {'imgObject': {}, 'id': 'Tribe humus pita', 'src': '/static/foodstim60/Tribe humus pita.jpg', 'key': 'i', 'origWidth': 411, 'origHeight': 411, 'width': 411, 'height': 411, 'widthPercent': 0.45, 'rescaleHeight': False, 'trialN': 60, 'loaded': True, 'loadedTime': 5844.9000000059605, 'positionName': 'RIGHT', 'positionCoords': [710.32, 178.5], 'bid': 0.16}]",123227.40000000596,1669840348726,eggsalad,Tribe humus pita,0.18,0.16,-0.01999999999999999,eggsalad,1241.2000000178814,1243,1242.2000000178814,True,u,124971.10000002384,1743.7000000178814,1669840350470,1744,HRV,HRV_0292,2022-11-30 20:35:54
61,"[{'imgObject': {}, 'id': 'hotdog w must', 'src': '/static/foodstim60/hotdog w must.jpg', 'key': 'u', 'origWidth': 409, 'origHeight': 409, 'width': 409, 'height': 409, 'widthPercent': 0.45, 'rescaleHeight': False, 'trialN': 61, 'loaded': True, 'loadedTime': 4130.4000000059605, 'positionName': 'LEFT', 'positionCoords': [246.68, 179.5], 'bid': 0.1}, {'imgObject': {}, 'id': 'sweetpotato', 'src': '/static/foodstim60/sweetpotato.jpg', 'key': 'i', 'origWidth': 410, 'origHeight': 410, 'width': 410, 'height': 410, 'widthPercent': 0.45, 'rescaleHeight': False, 'trialN': 61, 'loaded': True, 'loadedTime': 5353.800000011921, 'positionName': 'RIGHT', 'positionCoords': [710.32, 179], 'bid': 0.09}]",124971.70000001788,1669840350471,hotdog w must,sweetpotato,0.1,0.09,-0.010000000000000009,hotdog w must,847.0999999940395,849,848.9000000059605,True,u,126323.0,1351.2999999821186,1669840351822,1351,HRV,HRV_0292,2022-11-30 20:35:54
62,"[{'imgObject': {}, 'id': 'shreddedwheatwithmilk', 'src': '/static/foodstim60/shreddedwheatwithmilk.jpg', 'key': 'u', 'origWidth': 410, 'origHeight': 410, 'width': 410, 'height': 410, 'widthPercent': 0.45, 'rescaleHeight': False, 'trialN': 62, 'loaded': True, 'loadedTime': 4588.100000023842, 'positionName': 'LEFT', 'positionCoords': [245.68, 179], 'bid': 1.83}, {'imgObject': {}, 'id': 'luckycharms', 'src': '/static/foodstim60/luckycharms.jpg', 'key': 'i', 'origWidth': 410, 'origHeight': 409, 'width': 410, 'height': 409, 'widthPercent': 0.45, 'rescaleHeight': False, 'trialN': 62, 'loaded': True, 'loadedTime': 5640.600000023842, 'positionName': 'RIGHT', 'positionCoords': [710.32, 179.5], 'bid': 0.98}]",126323.5,1669840351822,shreddedwheatwithmilk,luckycharms,1.83,0.98,-0.8500000000000001,shreddedwheatwithmilk,2140.300000011921,2142,2141.300000011921,True,u,128971.10000002384,2647.600000023842,1669840354470,2648,HRV,HRV_0292,2022-11-30 20:35:54
63,"[{'imgObject': {}, 'id': 'sweetpotato', 'src': '/static/foodstim60/sweetpotato.jpg', 'key': 'u', 'origWidth': 410, 'origHeight': 410, 'width': 410, 'height': 410, 'widthPercent': 0.45, 'rescaleHeight': False, 'trialN': 63, 'loaded': True, 'loadedTime': 5355.100000023842, 'positionName': 'LEFT', 'positionCoords': [245.68, 179], 'bid': 0.09}, {'imgObject': {}, 'id': 'olives', 'src': '/static/foodstim60/olives.jpg', 'key': 'i', 'origWidth': 410, 'origHeight': 410, 'width': 410, 'height': 410, 'widthPercent': 0.45, 'rescaleHeight': False, 'trialN': 63, 'loaded': True, 'loadedTime': 5249.800000011921, 'positionName': 'RIGHT', 'positionCoords': [710.32, 179], 'bid': 0.16}]",128971.60000002384,1669840354471,sweetpotato,olives,0.09,0.16,0.07,sweetpotato,1390.8999999761581,1391,1391.5999999940395,True,u,130867.20000001788,1895.5999999940395,1669840356366,1895,HRV,HRV_0292,2022-11-30 20:35:54
64,"[{'imgObject': {}, 'id': 'strawberries', 'src': '/static/foodstim60/strawberries.jpg', 'key': 'u', 'origWidth': 410, 'origHeight': 410, 'width': 410, 'height': 410, 'widthPercent': 0.45, 'rescaleHeight': False, 'trialN': 64, 'loaded': True, 'loadedTime': 5824.800000011921, 'positionName': 'LEFT', 'positionCoords': [245.68, 179], 'bid': 2.54}, {'imgObject': {}, 'id': 'luckycharms', 'src': '/static/foodstim60/luckycharms.jpg', 'key': 'i', 'origWidth': 410, 'origHeight': 409, 'width': 410, 'height': 409, 'widthPercent': 0.45, 'rescaleHeight': False, 'trialN': 64, 'loaded': True, 'loadedTime': 5639.200000017881, 'positionName': 'RIGHT', 'positionCoords': [710.32, 179.5], 'bid': 0.98}]",130867.90000000596,1669840356367,strawberries,luckycharms,2.54,0.98,-1.56,strawberries,889.0,889,889.4000000059605,True,u,132259.30000001192,1391.4000000059605,1669840357758,1391,HRV,HRV_0292,2022-11-30 20:35:54
65,"[{'imgObject': {}, 'id': 'avocado', 'src': '/static/foodstim60/avocado.jpg', 'key': 'u', 'origWidth': 409, 'origHeight': 409, 'width': 409, 'height': 409, 'widthPercent': 0.45, 'rescaleHeight': False, 'trialN': 65, 'loaded': True, 'loadedTime': 5904.700000017881, 'positionName': 'LEFT', 'positionCoords': [246.68, 179.5], 'bid': 5.05}, {'imgObject': {}, 'id': 'apple slices', 'src': '/static/foodstim60/apple slices.jpg', 'key': 'i', 'origWidth': 409, 'origHeight': 410, 'width': 409, 'height': 410, 'widthPercent': 0.45, 'rescaleHeight': False, 'trialN': 65, 'loaded': True, 'loadedTime': 5360.200000017881, 'positionName': 'RIGHT', 'positionCoords': [710.32, 179], 'bid': 3.02}]",132259.90000000596,1669840357759,avocado,apple slices,5.05,3.02,-2.03,avocado,969.3000000119209,973,970.3000000119209,True,u,133731.5,1471.5999999940395,1669840359233,1474,HRV,HRV_0292,2022-11-30 20:35:54
66,"[{'imgObject': {}, 'id': 'mango', 'src': '/static/foodstim60/mango.jpg', 'key': 'u', 'origWidth': 411, 'origHeight': 411, 'width': 411, 'height': 411, 'widthPercent': 0.45, 'rescaleHeight': False, 'trialN': 66, 'loaded': True, 'loadedTime': 5897, 'positionName': 'LEFT', 'positionCoords': [244.68, 178.5], 'bid': 1.16}, {'imgObject': {}, 'id': 'luckycharms', 'src': '/static/foodstim60/luckycharms.jpg', 'key': 'i', 'origWidth': 410, 'origHeight': 409, 'width': 410, 'height': 409, 'widthPercent': 0.45, 'rescaleHeight': False, 'trialN': 66, 'loaded': True, 'loadedTime': 5641, 'positionName': 'RIGHT', 'positionCoords': [710.32, 179.5], 'bid': 0.98}]",133731.60000002384,1669840359233,mango,luckycharms,1.16,0.98,-0.17999999999999994,mango,874.3999999761581,875,875.5,True,u,135115.5,1383.8999999761581,1669840360617,1384,HRV,HRV_0292,2022-11-30 20:35:54
67,"[{'imgObject': {}, 'id': 'burger', 'src': '/static/foodstim60/burger.jpg', 'key': 'u', 'origWidth': 409, 'origHeight': 409, 'width': 409, 'height': 409, 'widthPercent': 0.45, 'rescaleHeight': False, 'trialN': 67, 'loaded': True, 'loadedTime': 4736.200000017881, 'positionName': 'LEFT', 'positionCoords': [246.68, 179.5], 'bid': 0.56}, {'imgObject': {}, 'id': 'cherries', 'src': '/static/foodstim60/cherries.jpg', 'key': 'i', 'origWidth': 410, 'origHeight': 411, 'width': 410, 'height': 411, 'widthPercent': 0.45, 'rescaleHeight': False, 'trialN': 67, 'loaded': True, 'loadedTime': 5794.5, 'positionName': 'RIGHT', 'positionCoords': [710.32, 178.5], 'bid': 0.46}]",135116.10000002384,1669840360617,burger,cherries,0.56,0.46,-0.10000000000000003,cherries,1601.0999999940395,1603,1602.0999999940395,True,i,137227.5,2111.399999976158,1669840362729,2112,HRV,HRV_0292,2022-11-30 20:35:54
68,"[{'imgObject': {}, 'id': 'avocado', 'src': '/static/foodstim60/avocado.jpg', 'key': 'u', 'origWidth': 409, 'origHeight': 409, 'width': 409, 'height': 409, 'widthPercent': 0.45, 'rescaleHeight': False, 'trialN': 68, 'loaded': True, 'loadedTime': 5897.800000011921, 'positionName': 'LEFT', 'positionCoords': [246.68, 179.5], 'bid': 5.05}, {'imgObject': {}, 'id': 'raisin bran w milk', 'src': '/static/foodstim60/raisin bran w milk.jpg', 'key': 'i', 'origWidth': 411, 'origHeight': 411, 'width': 411, 'height': 411, 'widthPercent': 0.45, 'rescaleHeight': False, 'trialN': 68, 'loaded': True, 'loadedTime': 4536.600000023842, 'positionName': 'RIGHT', 'positionCoords': [710.32, 178.5], 'bid': 5.33}]",137228.0,1669840362729,avocado,raisin bran w milk,5.05,5.33,0.28000000000000025,avocado,811.1000000238419,813,812.4000000059605,True,u,138546.5,1318.5,1669840364048,1319,HRV,HRV_0292,2022-11-30 20:35:54
69,"[{'imgObject': {}, 'id': 'omelette', 'src': '/static/foodstim60/omelette.jpg', 'key': 'u', 'origWidth': 410, 'origHeight': 409, 'width': 410, 'height': 409, 'widthPercent': 0.45, 'rescaleHeight': False, 'trialN': 69, 'loaded': True, 'loadedTime': 5242.200000017881, 'positionName': 'LEFT', 'positionCoords': [245.68, 179.5], 'bid': 0.28}, {'imgObject': {}, 'id': 'edamame', 'src': '/static/foodstim60/edamame.jpg', 'key': 'i', 'origWidth': 409, 'origHeight': 410, 'width': 409, 'height': 410, 'widthPercent': 0.45, 'rescaleHeight': False, 'trialN': 69, 'loaded': True, 'loadedTime': 5434.600000023842, 'positionName': 'RIGHT', 'positionCoords': [710.32, 179], 'bid': 0.3}]",138547.20000001788,1669840364049,omelette,edamame,0.28,0.3,0.019999999999999962,omelette,2487.699999988079,2488,2488.5999999940395,True,u,141538.70000001788,2991.5,1669840367040,2991,HRV,HRV_0292,2022-11-30 20:35:54
70,"[{'imgObject': {}, 'id': 'strawberries', 'src': '/static/foodstim60/strawberries.jpg', 'key': 'u', 'origWidth': 410, 'origHeight': 410, 'width': 410, 'height': 410, 'widthPercent': 0.45, 'rescaleHeight': False, 'trialN': 70, 'loaded': True, 'loadedTime': 5819.100000023842, 'positionName': 'LEFT', 'positionCoords': [245.68, 179], 'bid': 2.54}, {'imgObject': {}, 'id': 'bagel and cc', 'src': '/static/foodstim60/bagel and cc.jpg', 'key': 'i', 'origWidth': 410, 'origHeight': 410, 'width': 410, 'height': 410, 'widthPercent': 0.45, 'rescaleHeight': False, 'trialN': 70, 'loaded': True, 'loadedTime': 5514.800000011921, 'positionName': 'RIGHT', 'positionCoords': [710.32, 179], 'bid': 5.3500000000000005}]",141539.30000001192,1669840367041,strawberries,bagel and cc,2.54,5.3500000000000005,2.8100000000000005,bagel and cc,894.0,895,894.9000000059605,True,i,142938.80000001192,1399.5,1669840368440,1399,HRV,HRV_0292,2022-11-30 20:35:54
71,"[{'imgObject': {}, 'id': 'burrito', 'src': '/static/foodstim60/burrito.jpg', 'key': 'u', 'origWidth': 410, 'origHeight': 410, 'width': 410, 'height': 410, 'widthPercent': 0.45, 'rescaleHeight': False, 'trialN': 71, 'loaded': True, 'loadedTime': 5629.700000017881, 'positionName': 'LEFT', 'positionCoords': [245.68, 179], 'bid': 0.05}, {'imgObject': {}, 'id': 'cantaloupe', 'src': '/static/foodstim60/cantaloupe.jpg', 'key': 'i', 'origWidth': 409, 'origHeight': 409, 'width': 409, 'height': 409, 'widthPercent': 0.45, 'rescaleHeight': False, 'trialN': 71, 'loaded': True, 'loadedTime': 5344.200000017881, 'positionName': 'RIGHT', 'positionCoords': [710.32, 179.5], 'bid': 0.1}]",142939.40000000596,1669840368441,burrito,cantaloupe,0.05,0.1,0.05,cantaloupe,1302.2000000178814,1303,1303.300000011921,True,i,144746.90000000596,1807.5,1669840370248,1807,HRV,HRV_0292,2022-11-30 20:35:54
72,"[{'imgObject': {}, 'id': 'eggs', 'src': '/static/foodstim60/eggs.jpg', 'key': 'u', 'origWidth': 409, 'origHeight': 409, 'width': 409, 'height': 409, 'widthPercent': 0.45, 'rescaleHeight': False, 'trialN': 72, 'loaded': True, 'loadedTime': 5480.5, 'positionName': 'LEFT', 'positionCoords': [246.68, 179.5], 'bid': 3.18}, {'imgObject': {}, 'id': 'eggsalad', 'src': '/static/foodstim60/eggsalad.jpg', 'key': 'i', 'origWidth': 410, 'origHeight': 409, 'width': 410, 'height': 409, 'widthPercent': 0.45, 'rescaleHeight': False, 'trialN': 72, 'loaded': True, 'loadedTime': 5183.300000011921, 'positionName': 'RIGHT', 'positionCoords': [710.32, 179.5], 'bid': 0.18}]",144747.40000000596,1669840370249,eggs,eggsalad,3.18,0.18,-3.0,eggs,1072.5,1074,1073.9000000059605,True,u,146323.10000002384,1575.7000000178814,1669840371824,1575,HRV,HRV_0292,2022-11-30 20:35:54
73,"[{'imgObject': {}, 'id': 'sushi w_condiments', 'src': '/static/foodstim60/sushi w_condiments.jpg', 'key': 'u', 'origWidth': 410, 'origHeight': 410, 'width': 410, 'height': 410, 'widthPercent': 0.45, 'rescaleHeight': False, 'trialN': 73, 'loaded': True, 'loadedTime': 4940.5, 'positionName': 'LEFT', 'positionCoords': [245.68, 179], 'bid': 2.5500000000000003}, {'imgObject': {}, 'id': 'bagel plain', 'src': '/static/foodstim60/bagel plain.jpg', 'key': 'i', 'origWidth': 410, 'origHeight': 410, 'width': 410, 'height': 410, 'widthPercent': 0.45, 'rescaleHeight': False, 'trialN': 73, 'loaded': True, 'loadedTime': 4995.600000023842, 'positionName': 'RIGHT', 'positionCoords': [710.32, 179], 'bid': 5.0200000000000005}]",146323.70000001788,1669840371825,sushi w_condiments,bagel plain,2.5500000000000003,5.0200000000000005,2.47,bagel plain,1421.5999999940395,1422,1422.0,True,i,148251.0,1927.2999999821186,1669840373752,1927,HRV,HRV_0292,2022-11-30 20:35:54
74,"[{'imgObject': {}, 'id': 'strawberries', 'src': '/static/foodstim60/strawberries.jpg', 'key': 'u', 'origWidth': 410, 'origHeight': 410, 'width': 410, 'height': 410, 'widthPercent': 0.45, 'rescaleHeight': False, 'trialN': 74, 'loaded': True, 'loadedTime': 5825.100000023842, 'positionName': 'LEFT', 'positionCoords': [245.68, 179], 'bid': 2.54}, {'imgObject': {}, 'id': 'granola w milk', 'src': '/static/foodstim60/granola w milk.jpg', 'key': 'i', 'origWidth': 410, 'origHeight': 410, 'width': 410, 'height': 410, 'widthPercent': 0.45, 'rescaleHeight': False, 'trialN': 74, 'loaded': True, 'loadedTime': 5829.100000023842, 'positionName': 'RIGHT', 'positionCoords': [710.32, 179], 'bid': 3.28}]",148251.60000002384,1669840373753,strawberries,granola w milk,2.54,3.28,0.7399999999999998,granola w milk,1891.7999999821186,1893,1892.699999988079,True,i,150651.10000002384,2399.5,1669840376152,2399,HRV,HRV_0292,2022-11-30 20:35:54
75,"[{'imgObject': {}, 'id': 'strawberries', 'src': '/static/foodstim60/strawberries.jpg', 'key': 'u', 'origWidth': 410, 'origHeight': 410, 'width': 410, 'height': 410, 'widthPercent': 0.45, 'rescaleHeight': False, 'trialN': 75, 'loaded': True, 'loadedTime': 5823.5, 'positionName': 'LEFT', 'positionCoords': [245.68, 179], 'bid': 2.54}, {'imgObject': {}, 'id': 'steak', 'src': '/static/foodstim60/steak.jpg', 'key': 'i', 'origWidth': 410, 'origHeight': 410, 'width': 410, 'height': 410, 'widthPercent': 0.45, 'rescaleHeight': False, 'trialN': 75, 'loaded': True, 'loadedTime': 5910.5, 'positionName': 'RIGHT', 'positionCoords': [710.32, 179], 'bid': 2.14}]",150651.70000001788,1669840376153,strawberries,steak,2.54,2.14,-0.3999999999999999,steak,1663.9000000059605,1665,1664.7999999821186,True,i,152819.60000002384,2167.9000000059605,1669840378321,2168,HRV,HRV_0292,2022-11-30 20:35:54
76,"[{'imgObject': {}, 'id': 'orange slices', 'src': '/static/foodstim60/orange slices.jpg', 'key': 'u', 'origWidth': 409, 'origHeight': 410, 'width': 409, 'height': 410, 'widthPercent': 0.45, 'rescaleHeight': False, 'trialN': 76, 'loaded': True, 'loadedTime': 5428.200000017881, 'positionName': 'LEFT', 'positionCoords': [246.68, 179], 'bid': 6.44}, {'imgObject': {}, 'id': 'banana', 'src': '/static/foodstim60/banana.jpg', 'key': 'i', 'origWidth': 410, 'origHeight': 410, 'width': 410, 'height': 410, 'widthPercent': 0.45, 'rescaleHeight': False, 'trialN': 76, 'loaded': True, 'loadedTime': 5121.100000023842, 'positionName': 'RIGHT', 'positionCoords': [710.32, 179], 'bid': 5.04}]",152820.20000001788,1669840378321,orange slices,banana,6.44,5.04,-1.4000000000000004,banana,1388.0,1389,1388.4000000059605,True,i,154715.40000000596,1895.199999988079,1669840380217,1896,HRV,HRV_0292,2022-11-30 20:35:54
77,"[{'imgObject': {}, 'id': 'steak', 'src': '/static/foodstim60/steak.jpg', 'key': 'u', 'origWidth': 410, 'origHeight': 410, 'width': 410, 'height': 410, 'widthPercent': 0.45, 'rescaleHeight': False, 'trialN': 77, 'loaded': True, 'loadedTime': 5911.5, 'positionName': 'LEFT', 'positionCoords': [245.68, 179], 'bid': 2.14}, {'imgObject': {}, 'id': 'cheerios', 'src': '/static/foodstim60/cheerios.jpg', 'key': 'i', 'origWidth': 409, 'origHeight': 410, 'width': 409, 'height': 410, 'widthPercent': 0.45, 'rescaleHeight': False, 'trialN': 77, 'loaded': True, 'loadedTime': 5584.4000000059605, 'positionName': 'RIGHT', 'positionCoords': [710.32, 179], 'bid': 3.16}]",154715.60000002384,1669840380217,steak,cheerios,2.14,3.16,1.02,steak,1057.5,1058,1058.199999988079,True,u,156275.40000000596,1559.7999999821186,1669840381777,1560,HRV,HRV_0292,2022-11-30 20:35:54
78,"[{'imgObject': {}, 'id': 'cherry tomato', 'src': '/static/foodstim60/cherry tomato.jpg', 'key': 'u', 'origWidth': 410, 'origHeight': 410, 'width': 410, 'height': 410, 'widthPercent': 0.45, 'rescaleHeight': False, 'trialN': 78, 'loaded': True, 'loadedTime': 4893.200000017881, 'positionName': 'LEFT', 'positionCoords': [245.68, 179], 'bid': 0.4}, {'imgObject': {}, 'id': 'rigatoni and sauce', 'src': '/static/foodstim60/rigatoni and sauce.jpg', 'key': 'i', 'origWidth': 410, 'origHeight': 411, 'width': 410, 'height': 411, 'widthPercent': 0.45, 'rescaleHeight': False, 'trialN': 78, 'loaded': True, 'loadedTime': 5705, 'positionName': 'RIGHT', 'positionCoords': [710.32, 178.5], 'bid': 0.15}]",156275.70000001788,1669840381777,cherry tomato,rigatoni and sauce,0.4,0.15,-0.25,rigatoni and sauce,2607.5999999940395,2608,2608.4000000059605,True,i,159387.5,3111.7999999821186,1669840384889,3112,HRV,HRV_0292,2022-11-30 20:35:54
79,"[{'imgObject': {}, 'id': 'eggs', 'src': '/static/foodstim60/eggs.jpg', 'key': 'u', 'origWidth': 409, 'origHeight': 409, 'width': 409, 'height': 409, 'widthPercent': 0.45, 'rescaleHeight': False, 'trialN': 79, 'loaded': True, 'loadedTime': 5481.700000017881, 'positionName': 'LEFT', 'positionCoords': [246.68, 179.5], 'bid': 3.18}, {'imgObject': {}, 'id': 'bagel and cc', 'src': '/static/foodstim60/bagel and cc.jpg', 'key': 'i', 'origWidth': 410, 'origHeight': 410, 'width': 410, 'height': 410, 'widthPercent': 0.45, 'rescaleHeight': False, 'trialN': 79, 'loaded': True, 'loadedTime': 5516.9000000059605, 'positionName': 'RIGHT', 'positionCoords': [710.32, 179], 'bid': 5.3500000000000005}]",159388.10000002384,1669840384889,eggs,bagel and cc,3.18,5.3500000000000005,2.1700000000000004,bagel and cc,1530.0999999940395,1532,1531.0999999940395,True,i,161426.70000001788,2038.5999999940395,1669840386928,2039,HRV,HRV_0292,2022-11-30 20:35:54
80,"[{'imgObject': {}, 'id': 'yogurt no spoon', 'src': '/static/foodstim60/yogurt no spoon.jpg', 'key': 'u', 'origWidth': 411, 'origHeight': 410, 'width': 411, 'height': 410, 'widthPercent': 0.45, 'rescaleHeight': False, 'trialN': 80, 'loaded': True, 'loadedTime': 5589.800000011921, 'positionName': 'LEFT', 'positionCoords': [244.68, 179], 'bid': 0.51}, {'imgObject': {}, 'id': 'fruitsalad', 'src': '/static/foodstim60/fruitsalad.jpg', 'key': 'i', 'origWidth': 410, 'origHeight': 410, 'width': 410, 'height': 410, 'widthPercent': 0.45, 'rescaleHeight': False, 'trialN': 80, 'loaded': True, 'loadedTime': 5915.100000023842, 'positionName': 'RIGHT', 'positionCoords': [710.32, 179], 'bid': 6.03}]",161427.10000002384,1669840386928,yogurt no spoon,fruitsalad,0.51,6.03,5.5200000000000005,fruitsalad,1178.7999999821186,1180,1179.7999999821186,True,i,163114.70000001788,1687.5999999940395,1669840388616,1688,HRV,HRV_0292,2022-11-30 20:35:54
81,"[{'imgObject': {}, 'id': 'tacos', 'src': '/static/foodstim60/tacos.jpg', 'key': 'u', 'origWidth': 411, 'origHeight': 411, 'width': 411, 'height': 411, 'widthPercent': 0.45, 'rescaleHeight': False, 'trialN': 81, 'loaded': True, 'loadedTime': 5120.5, 'positionName': 'LEFT', 'positionCoords': [244.68, 178.5], 'bid': 2.1}, {'imgObject': {}, 'id': 'apple slices', 'src': '/static/foodstim60/apple slices.jpg', 'key': 'i', 'origWidth': 409, 'origHeight': 410, 'width': 409, 'height': 410, 'widthPercent': 0.45, 'rescaleHeight': False, 'trialN': 81, 'loaded': True, 'loadedTime': 5420, 'positionName': 'RIGHT', 'positionCoords': [710.32, 179], 'bid': 3.02}]",163115.20000001788,1669840388617,tacos,apple slices,2.1,3.02,0.9199999999999999,apple slices,2209.2999999821186,2210,2210.2999999821186,True,i,165829.0,2713.7999999821186,1669840391330,2713,HRV,HRV_0292,2022-11-30 20:35:54
82,"[{'imgObject': {}, 'id': 'salad w chicken', 'src': '/static/foodstim60/salad w chicken.jpg', 'key': 'u', 'origWidth': 411, 'origHeight': 411, 'width': 411, 'height': 411, 'widthPercent': 0.45, 'rescaleHeight': False, 'trialN': 82, 'loaded': True, 'loadedTime': 5580.100000023842, 'positionName': 'LEFT', 'positionCoords': [244.68, 178.5], 'bid': 2.61}, {'imgObject': {}, 'id': 'olives', 'src': '/static/foodstim60/olives.jpg', 'key': 'i', 'origWidth': 410, 'origHeight': 410, 'width': 410, 'height': 410, 'widthPercent': 0.45, 'rescaleHeight': False, 'trialN': 82, 'loaded': True, 'loadedTime': 5246, 'positionName': 'RIGHT', 'positionCoords': [710.32, 179], 'bid': 0.16}]",165829.5,1669840391331,salad w chicken,olives,2.61,0.16,-2.4499999999999997,salad w chicken,1098.9000000059605,1100,1100.0,True,u,167434.80000001192,1605.300000011921,1669840392936,1605,HRV,HRV_0292,2022-11-30 20:35:54
83,"[{'imgObject': {}, 'id': 'cocktailshrimp', 'src': '/static/foodstim60/cocktailshrimp.jpg', 'key': 'u', 'origWidth': 410, 'origHeight': 410, 'width': 410, 'height': 410, 'widthPercent': 0.45, 'rescaleHeight': False, 'trialN': 83, 'loaded': True, 'loadedTime': 5800.100000023842, 'positionName': 'LEFT', 'positionCoords': [245.68, 179], 'bid': 4.83}, {'imgObject': {}, 'id': 'fried eggs', 'src': '/static/foodstim60/fried eggs.jpg', 'key': 'i', 'origWidth': 410, 'origHeight': 410, 'width': 410, 'height': 410, 'widthPercent': 0.45, 'rescaleHeight': False, 'trialN': 83, 'loaded': True, 'loadedTime': 4493, 'positionName': 'RIGHT', 'positionCoords': [710.32, 179], 'bid': 5.92}]",167435.30000001192,1669840392937,cocktailshrimp,fried eggs,4.83,5.92,1.0899999999999999,fried eggs,1944.199999988079,1945,1945.0999999940395,True,i,169883.30000001192,2448.0,1669840395385,2448,HRV,HRV_0292,2022-11-30 20:35:54
84,"[{'imgObject': {}, 'id': 'hashbrowns', 'src': '/static/foodstim60/hashbrowns.jpg', 'key': 'u', 'origWidth': 411, 'origHeight': 410, 'width': 411, 'height': 410, 'widthPercent': 0.45, 'rescaleHeight': False, 'trialN': 84, 'loaded': True, 'loadedTime': 5713.200000017881, 'positionName': 'LEFT', 'positionCoords': [244.68, 179], 'bid': 0.24}, {'imgObject': {}, 'id': 'burrito', 'src': '/static/foodstim60/burrito.jpg', 'key': 'i', 'origWidth': 410, 'origHeight': 410, 'width': 410, 'height': 410, 'widthPercent': 0.45, 'rescaleHeight': False, 'trialN': 84, 'loaded': True, 'loadedTime': 5635, 'positionName': 'RIGHT', 'positionCoords': [710.32, 179], 'bid': 0.05}]",169883.80000001192,1669840395385,hashbrowns,burrito,0.24,0.05,-0.19,hashbrowns,1110.800000011921,1112,1111.9000000059605,True,u,171499.0,1615.199999988079,1669840397000,1615,HRV,HRV_0292,2022-11-30 20:35:54
85,"[{'imgObject': {}, 'id': 'chicken nuggets2', 'src': '/static/foodstim60/chicken nuggets2.jpg', 'key': 'u', 'origWidth': 410, 'origHeight': 409, 'width': 410, 'height': 409, 'widthPercent': 0.45, 'rescaleHeight': False, 'trialN': 85, 'loaded': True, 'loadedTime': 4438.600000023842, 'positionName': 'LEFT', 'positionCoords': [245.68, 179.5], 'bid': 1.57}, {'imgObject': {}, 'id': 'cherry tomato', 'src': '/static/foodstim60/cherry tomato.jpg', 'key': 'i', 'origWidth': 410, 'origHeight': 410, 'width': 410, 'height': 410, 'widthPercent': 0.45, 'rescaleHeight': False, 'trialN': 85, 'loaded': True, 'loadedTime': 4892.800000011921, 'positionName': 'RIGHT', 'positionCoords': [710.32, 179], 'bid': 0.4}]",171499.5,1669840397001,chicken nuggets2,cherry tomato,1.57,0.4,-1.17,chicken nuggets2,1558.800000011921,1560,1559.9000000059605,True,u,173563.10000002384,2063.600000023842,1669840399064,2063,HRV,HRV_0292,2022-11-30 20:35:54
86,"[{'imgObject': {}, 'id': 'hotdog w must', 'src': '/static/foodstim60/hotdog w must.jpg', 'key': 'u', 'origWidth': 409, 'origHeight': 409, 'width': 409, 'height': 409, 'widthPercent': 0.45, 'rescaleHeight': False, 'trialN': 86, 'loaded': True, 'loadedTime': 4290.4000000059605, 'positionName': 'LEFT', 'positionCoords': [246.68, 179.5], 'bid': 0.1}, {'imgObject': {}, 'id': 'steak', 'src': '/static/foodstim60/steak.jpg', 'key': 'i', 'origWidth': 410, 'origHeight': 410, 'width': 410, 'height': 410, 'widthPercent': 0.45, 'rescaleHeight': False, 'trialN': 86, 'loaded': True, 'loadedTime': 5905.600000023842, 'positionName': 'RIGHT', 'positionCoords': [710.32, 179], 'bid': 2.14}]",173563.70000001788,1669840399065,hotdog w must,steak,0.1,2.14,2.04,steak,1425.0999999940395,1426,1426.2999999821186,True,i,175491.30000001192,1927.5999999940395,1669840400993,1928,HRV,HRV_0292,2022-11-30 20:35:54
87,"[{'imgObject': {}, 'id': 'roastedpotatoes', 'src': '/static/foodstim60/roastedpotatoes.jpg', 'key': 'u', 'origWidth': 409, 'origHeight': 410, 'width': 409, 'height': 410, 'widthPercent': 0.45, 'rescaleHeight': False, 'trialN': 87, 'loaded': True, 'loadedTime': 5030.200000017881, 'positionName': 'LEFT', 'positionCoords': [246.68, 179], 'bid': 0.21}, {'imgObject': {}, 'id': 'edamame', 'src': '/static/foodstim60/edamame.jpg', 'key': 'i', 'origWidth': 409, 'origHeight': 410, 'width': 409, 'height': 410, 'widthPercent': 0.45, 'rescaleHeight': False, 'trialN': 87, 'loaded': True, 'loadedTime': 5434.800000011921, 'positionName': 'RIGHT', 'positionCoords': [710.32, 179], 'bid': 0.3}]",175491.90000000596,1669840400993,roastedpotatoes,edamame,0.21,0.3,0.09,roastedpotatoes,1787.9000000059605,1789,1788.5,True,u,177787.40000000596,2295.5,1669840403289,2296,HRV,HRV_0292,2022-11-30 20:35:54
88,"[{'imgObject': {}, 'id': 'corn cob', 'src': '/static/foodstim60/corn cob.jpg', 'key': 'u', 'origWidth': 411, 'origHeight': 411, 'width': 411, 'height': 411, 'widthPercent': 0.45, 'rescaleHeight': False, 'trialN': 88, 'loaded': True, 'loadedTime': 4841.700000017881, 'positionName': 'LEFT', 'positionCoords': [244.68, 178.5], 'bid': 0}, {'imgObject': {}, 'id': 'lox', 'src': '/static/foodstim60/lox.jpg', 'key': 'i', 'origWidth': 410, 'origHeight': 411, 'width': 410, 'height': 411, 'widthPercent': 0.45, 'rescaleHeight': False, 'trialN': 88, 'loaded': True, 'loadedTime': 4367.100000023842, 'positionName': 'RIGHT', 'positionCoords': [710.32, 178.5], 'bid': 0}]",177787.80000001192,1669840403289,corn cob,lox,0.0,0.0,0.0,corn cob,1575.5,1577,1576.5,True,u,179867.40000000596,2079.5999999940395,1669840405369,2080,HRV,HRV_0292,2022-11-30 20:35:54
89,"[{'imgObject': {}, 'id': 'salmon', 'src': '/static/foodstim60/salmon.jpg', 'key': 'u', 'origWidth': 410, 'origHeight': 409, 'width': 410, 'height': 409, 'widthPercent': 0.45, 'rescaleHeight': False, 'trialN': 89, 'loaded': True, 'loadedTime': 5916.600000023842, 'positionName': 'LEFT', 'positionCoords': [245.68, 179.5], 'bid': 0.12}, {'imgObject': {}, 'id': 'seaweed', 'src': '/static/foodstim60/seaweed.jpg', 'key': 'i', 'origWidth': 410, 'origHeight': 410, 'width': 410, 'height': 410, 'widthPercent': 0.45, 'rescaleHeight': False, 'trialN': 89, 'loaded': True, 'loadedTime': 4846.600000023842, 'positionName': 'RIGHT', 'positionCoords': [710.32, 179], 'bid': 0}]",179868.10000002384,1669840405369,salmon,seaweed,0.12,0.0,-0.12,salmon,988.8999999761581,990,990.0,True,u,181363.5,1495.3999999761581,1669840406865,1496,HRV,HRV_0292,2022-11-30 20:35:54
90,"[{'imgObject': {}, 'id': 'cocktailshrimp', 'src': '/static/foodstim60/cocktailshrimp.jpg', 'key': 'u', 'origWidth': 410, 'origHeight': 410, 'width': 410, 'height': 410, 'widthPercent': 0.45, 'rescaleHeight': False, 'trialN': 90, 'loaded': True, 'loadedTime': 5799.9000000059605, 'positionName': 'LEFT', 'positionCoords': [245.68, 179], 'bid': 4.83}, {'imgObject': {}, 'id': 'pear', 'src': '/static/foodstim60/pear.jpg', 'key': 'i', 'origWidth': 411, 'origHeight': 410, 'width': 411, 'height': 410, 'widthPercent': 0.45, 'rescaleHeight': False, 'trialN': 90, 'loaded': True, 'loadedTime': 4941.300000011921, 'positionName': 'RIGHT', 'positionCoords': [710.32, 179], 'bid': 4.15}]",184021.10000002384,1669840409522,cocktailshrimp,pear,4.83,4.15,-0.6799999999999997,pear,1765.8999999761581,1768,1767.3999999761581,True,i,186290.70000001788,2269.5999999940395,1669840411792,2270,HRV,HRV_0292,2022-11-30 20:35:54
91,"[{'imgObject': {}, 'id': 'popsicles', 'src': '/static/foodstim60/popsicles.jpg', 'key': 'u', 'origWidth': 410, 'origHeight': 410, 'width': 410, 'height': 410, 'widthPercent': 0.45, 'rescaleHeight': False, 'trialN': 91, 'loaded': True, 'loadedTime': 5926.4000000059605, 'positionName': 'LEFT', 'positionCoords': [245.68, 179], 'bid': 3.41}, {'imgObject': {}, 'id': 'eggs', 'src': '/static/foodstim60/eggs.jpg', 'key': 'i', 'origWidth': 409, 'origHeight': 409, 'width': 409, 'height': 409, 'widthPercent': 0.45, 'rescaleHeight': False, 'trialN': 91, 'loaded': True, 'loadedTime': 5482.5, 'positionName': 'RIGHT', 'positionCoords': [710.32, 179.5], 'bid': 3.18}]",186291.20000001788,1669840411793,popsicles,eggs,3.41,3.18,-0.22999999999999998,eggs,852.5999999940395,853,853.5999999940395,True,i,187650.80000001192,1359.5999999940395,1669840413152,1359,HRV,HRV_0292,2022-11-30 20:35:54
92,"[{'imgObject': {}, 'id': 'eggs', 'src': '/static/foodstim60/eggs.jpg', 'key': 'u', 'origWidth': 409, 'origHeight': 409, 'width': 409, 'height': 409, 'widthPercent': 0.45, 'rescaleHeight': False, 'trialN': 92, 'loaded': True, 'loadedTime': 5483, 'positionName': 'LEFT', 'positionCoords': [246.68, 179.5], 'bid': 3.18}, {'imgObject': {}, 'id': 'granola w milk', 'src': '/static/foodstim60/granola w milk.jpg', 'key': 'i', 'origWidth': 410, 'origHeight': 410, 'width': 410, 'height': 410, 'widthPercent': 0.45, 'rescaleHeight': False, 'trialN': 92, 'loaded': True, 'loadedTime': 5831.600000023842, 'positionName': 'RIGHT', 'positionCoords': [710.32, 179], 'bid': 3.28}]",187651.40000000596,1669840413153,eggs,granola w milk,3.18,3.28,0.09999999999999964,granola w milk,1241.2000000178814,1242,1242.4000000059605,True,i,189394.90000000596,1743.5,1669840414896,1743,HRV,HRV_0292,2022-11-30 20:35:54
93,"[{'imgObject': {}, 'id': 'salad w chicken', 'src': '/static/foodstim60/salad w chicken.jpg', 'key': 'u', 'origWidth': 411, 'origHeight': 411, 'width': 411, 'height': 411, 'widthPercent': 0.45, 'rescaleHeight': False, 'trialN': 93, 'loaded': True, 'loadedTime': 5580.4000000059605, 'positionName': 'LEFT', 'positionCoords': [244.68, 178.5], 'bid': 2.61}, {'imgObject': {}, 'id': 'froot loops w milk', 'src': '/static/foodstim60/froot loops w milk.jpg', 'key': 'i', 'origWidth': 410, 'origHeight': 410, 'width': 410, 'height': 410, 'widthPercent': 0.45, 'rescaleHeight': False, 'trialN': 93, 'loaded': True, 'loadedTime': 5747.800000011921, 'positionName': 'RIGHT', 'positionCoords': [710.32, 179], 'bid': 3.53}]",189395.5,1669840414897,salad w chicken,froot loops w milk,2.61,3.53,0.9199999999999999,salad w chicken,2112.9000000059605,2114,2113.9000000059605,True,u,192011.10000002384,2615.600000023842,1669840417512,2615,HRV,HRV_0292,2022-11-30 20:35:54
94,"[{'imgObject': {}, 'id': 'tacos', 'src': '/static/foodstim60/tacos.jpg', 'key': 'u', 'origWidth': 411, 'origHeight': 411, 'width': 411, 'height': 411, 'widthPercent': 0.45, 'rescaleHeight': False, 'trialN': 94, 'loaded': True, 'loadedTime': 5080.5, 'positionName': 'LEFT', 'positionCoords': [244.68, 178.5], 'bid': 2.1}, {'imgObject': {}, 'id': 'yogurt no spoon', 'src': '/static/foodstim60/yogurt no spoon.jpg', 'key': 'i', 'origWidth': 411, 'origHeight': 410, 'width': 411, 'height': 410, 'widthPercent': 0.45, 'rescaleHeight': False, 'trialN': 94, 'loaded': True, 'loadedTime': 5628, 'positionName': 'RIGHT', 'positionCoords': [710.32, 179], 'bid': 0.51}]",192011.60000002384,1669840417513,tacos,yogurt no spoon,2.1,0.51,-1.59,yogurt no spoon,1245.3999999761581,1246,1246.5,True,i,193763.0,1751.3999999761581,1669840419264,1751,HRV,HRV_0292,2022-11-30 20:35:54
95,"[{'imgObject': {}, 'id': 'hashbrowns', 'src': '/static/foodstim60/hashbrowns.jpg', 'key': 'u', 'origWidth': 411, 'origHeight': 410, 'width': 411, 'height': 410, 'widthPercent': 0.45, 'rescaleHeight': False, 'trialN': 95, 'loaded': True, 'loadedTime': 5710.5, 'positionName': 'LEFT', 'positionCoords': [244.68, 179], 'bid': 0.24}, {'imgObject': {}, 'id': 'mashed potato', 'src': '/static/foodstim60/mashed potato.jpg', 'key': 'i', 'origWidth': 409, 'origHeight': 409, 'width': 409, 'height': 409, 'widthPercent': 0.45, 'rescaleHeight': False, 'trialN': 95, 'loaded': True, 'loadedTime': 5517.9000000059605, 'positionName': 'RIGHT', 'positionCoords': [710.32, 179.5], 'bid': 0.21}]",193763.10000002384,1669840419264,hashbrowns,mashed potato,0.24,0.21,-0.03,hashbrowns,1083.2999999821186,1084,1084.5,True,u,195355.10000002384,1592.0,1669840420856,1592,HRV,HRV_0292,2022-11-30 20:35:54
96,"[{'imgObject': {}, 'id': 'roastedpotatoes', 'src': '/static/foodstim60/roastedpotatoes.jpg', 'key': 'u', 'origWidth': 409, 'origHeight': 410, 'width': 409, 'height': 410, 'widthPercent': 0.45, 'rescaleHeight': False, 'trialN': 96, 'loaded': True, 'loadedTime': 5033.600000023842, 'positionName': 'LEFT', 'positionCoords': [246.68, 179], 'bid': 0.21}, {'imgObject': {}, 'id': 'mashed potato', 'src': '/static/foodstim60/mashed potato.jpg', 'key': 'i', 'origWidth': 409, 'origHeight': 409, 'width': 409, 'height': 409, 'widthPercent': 0.45, 'rescaleHeight': False, 'trialN': 96, 'loaded': True, 'loadedTime': 5521.600000023842, 'positionName': 'RIGHT', 'positionCoords': [710.32, 179.5], 'bid': 0.21}]",195355.70000001788,1669840420857,roastedpotatoes,mashed potato,0.21,0.21,0.0,roastedpotatoes,635.2999999821186,636,636.4000000059605,True,u,196499.20000001788,1143.5,1669840422000,1143,HRV,HRV_0292,2022-11-30 20:35:54
97,"[{'imgObject': {}, 'id': 'mango', 'src': '/static/foodstim60/mango.jpg', 'key': 'u', 'origWidth': 411, 'origHeight': 411, 'width': 411, 'height': 411, 'widthPercent': 0.45, 'rescaleHeight': False, 'trialN': 97, 'loaded': True, 'loadedTime': 5897.4000000059605, 'positionName': 'LEFT', 'positionCoords': [244.68, 178.5], 'bid': 1.16}, {'imgObject': {}, 'id': 'turkey sandwich', 'src': '/static/foodstim60/turkey sandwich.jpg', 'key': 'i', 'origWidth': 409, 'origHeight': 409, 'width': 409, 'height': 409, 'widthPercent': 0.45, 'rescaleHeight': False, 'trialN': 97, 'loaded': True, 'loadedTime': 5312.600000023842, 'positionName': 'RIGHT', 'positionCoords': [710.32, 179.5], 'bid': 0.3}]",196499.80000001192,1669840422001,mango,turkey sandwich,1.16,0.3,-0.8599999999999999,turkey sandwich,1166.699999988079,1167,1167.800000011921,True,i,198171.30000001192,1671.5,1669840423672,1671,HRV,HRV_0292,2022-11-30 20:35:54
98,"[{'imgObject': {}, 'id': 'shreddedwheatwithmilk', 'src': '/static/foodstim60/shreddedwheatwithmilk.jpg', 'key': 'u', 'origWidth': 410, 'origHeight': 410, 'width': 410, 'height': 410, 'widthPercent': 0.45, 'rescaleHeight': False, 'trialN': 98, 'loaded': True, 'loadedTime': 4589.300000011921, 'positionName': 'LEFT', 'positionCoords': [245.68, 179], 'bid': 1.83}, {'imgObject': {}, 'id': 'raspberries', 'src': '/static/foodstim60/raspberries.jpg', 'key': 'i', 'origWidth': 411, 'origHeight': 411, 'width': 411, 'height': 411, 'widthPercent': 0.45, 'rescaleHeight': False, 'trialN': 98, 'loaded': True, 'loadedTime': 4730.4000000059605, 'positionName': 'RIGHT', 'positionCoords': [710.32, 178.5], 'bid': 1.51}]",198171.80000001192,1669840423673,shreddedwheatwithmilk,raspberries,1.83,1.51,-0.32000000000000006,shreddedwheatwithmilk,1181.199999988079,1182,1182.5,True,u,199859.40000000596,1687.5999999940395,1669840425360,1687,HRV,HRV_0292,2022-11-30 20:35:54
99,"[{'imgObject': {}, 'id': 'veggieswithdip', 'src': '/static/foodstim60/veggieswithdip.jpg', 'key': 'u', 'origWidth': 409, 'origHeight': 409, 'width': 409, 'height': 409, 'widthPercent': 0.45, 'rescaleHeight': False, 'trialN': 99, 'loaded': True, 'loadedTime': 5642, 'positionName': 'LEFT', 'positionCoords': [246.68, 179.5], 'bid': 0.18}, {'imgObject': {}, 'id': 'mac & cheese', 'src': '/static/foodstim60/mac & cheese.jpg', 'key': 'i', 'origWidth': 410, 'origHeight': 410, 'width': 410, 'height': 410, 'widthPercent': 0.45, 'rescaleHeight': False, 'trialN': 99, 'loaded': True, 'loadedTime': 5307.5, 'positionName': 'RIGHT', 'positionCoords': [710.32, 179], 'bid': 0.19}]",199859.90000000596,1669840425361,veggieswithdip,mac & cheese,0.18,0.19,0.010000000000000009,veggieswithdip,1511.0999999940395,1512,1512.0999999940395,True,u,201875.5,2015.5999999940395,1669840427376,2015,HRV,HRV_0292,2022-11-30 20:35:54
100,"[{'imgObject': {}, 'id': 'banana', 'src': '/static/foodstim60/banana.jpg', 'key': 'u', 'origWidth': 410, 'origHeight': 410, 'width': 410, 'height': 410, 'widthPercent': 0.45, 'rescaleHeight': False, 'trialN': 100, 'loaded': True, 'loadedTime': 5123.4000000059605, 'positionName': 'LEFT', 'positionCoords': [245.68, 179], 'bid': 5.04}, {'imgObject': {}, 'id': 'bagel plain', 'src': '/static/foodstim60/bagel plain.jpg', 'key': 'i', 'origWidth': 410, 'origHeight': 410, 'width': 410, 'height': 410, 'widthPercent': 0.45, 'rescaleHeight': False, 'trialN': 100, 'loaded': True, 'loadedTime': 4994.9000000059605, 'positionName': 'RIGHT', 'positionCoords': [710.32, 179], 'bid': 5.0200000000000005}]",201875.90000000596,1669840427377,banana,bagel plain,5.04,5.0200000000000005,-0.019999999999999574,bagel plain,961.0999999940395,962,962.2000000178814,True,i,203339.5,1463.5999999940395,1669840428840,1463,HRV,HRV_0292,2022-11-30 20:35:54
101,"[{'imgObject': {}, 'id': 'bagel and cc', 'src': '/static/foodstim60/bagel and cc.jpg', 'key': 'u', 'origWidth': 410, 'origHeight': 410, 'width': 410, 'height': 410, 'widthPercent': 0.45, 'rescaleHeight': False, 'trialN': 101, 'loaded': True, 'loadedTime': 5517.800000011921, 'positionName': 'LEFT', 'positionCoords': [245.68, 179], 'bid': 5.3500000000000005}, {'imgObject': {}, 'id': 'fried eggs', 'src': '/static/foodstim60/fried eggs.jpg', 'key': 'i', 'origWidth': 410, 'origHeight': 410, 'width': 410, 'height': 410, 'widthPercent': 0.45, 'rescaleHeight': False, 'trialN': 101, 'loaded': True, 'loadedTime': 4491.100000023842, 'positionName': 'RIGHT', 'positionCoords': [710.32, 179], 'bid': 5.92}]",203340.0,1669840428841,bagel and cc,fried eggs,5.3500000000000005,5.92,0.5699999999999994,bagel and cc,816.2000000178814,817,817.2000000178814,True,u,204658.5,1318.5,1669840430159,1318,HRV,HRV_0292,2022-11-30 20:35:54
102,"[{'imgObject': {}, 'id': 'sweetpotato', 'src': '/static/foodstim60/sweetpotato.jpg', 'key': 'u', 'origWidth': 410, 'origHeight': 410, 'width': 410, 'height': 410, 'widthPercent': 0.45, 'rescaleHeight': False, 'trialN': 102, 'loaded': True, 'loadedTime': 5345.800000011921, 'positionName': 'LEFT', 'positionCoords': [245.68, 179], 'bid': 0.09}, {'imgObject': {}, 'id': 'mac & cheese', 'src': '/static/foodstim60/mac & cheese.jpg', 'key': 'i', 'origWidth': 410, 'origHeight': 410, 'width': 410, 'height': 410, 'widthPercent': 0.45, 'rescaleHeight': False, 'trialN': 102, 'loaded': True, 'loadedTime': 5306.9000000059605, 'positionName': 'RIGHT', 'positionCoords': [710.32, 179], 'bid': 0.19}]",204659.10000002384,1669840430160,sweetpotato,mac & cheese,0.09,0.19,0.1,sweetpotato,920.6999999880791,925,924.7999999821186,True,u,206090.90000000596,1431.7999999821186,1669840431592,1432,HRV,HRV_0292,2022-11-30 20:35:54
103,"[{'imgObject': {}, 'id': 'mac & cheese', 'src': '/static/foodstim60/mac & cheese.jpg', 'key': 'u', 'origWidth': 410, 'origHeight': 410, 'width': 410, 'height': 410, 'widthPercent': 0.45, 'rescaleHeight': False, 'trialN': 103, 'loaded': True, 'loadedTime': 5307.9000000059605, 'positionName': 'LEFT', 'positionCoords': [245.68, 179], 'bid': 0.19}, {'imgObject': {}, 'id': 'granola w milk', 'src': '/static/foodstim60/granola w milk.jpg', 'key': 'i', 'origWidth': 410, 'origHeight': 410, 'width': 410, 'height': 410, 'widthPercent': 0.45, 'rescaleHeight': False, 'trialN': 103, 'loaded': True, 'loadedTime': 5831.200000017881, 'positionName': 'RIGHT', 'positionCoords': [710.32, 179], 'bid': 3.28}]",206091.30000001192,1669840431592,mac & cheese,granola w milk,0.19,3.28,3.09,granola w milk,856.1999999880791,857,857.1999999880791,True,i,207450.70000001788,1359.4000000059605,1669840432952,1360,HRV,HRV_0292,2022-11-30 20:35:54
104,"[{'imgObject': {}, 'id': 'cheerios', 'src': '/static/foodstim60/cheerios.jpg', 'key': 'u', 'origWidth': 409, 'origHeight': 410, 'width': 409, 'height': 410, 'widthPercent': 0.45, 'rescaleHeight': False, 'trialN': 104, 'loaded': True, 'loadedTime': 5587.800000011921, 'positionName': 'LEFT', 'positionCoords': [246.68, 179], 'bid': 3.16}, {'imgObject': {}, 'id': 'apple slices', 'src': '/static/foodstim60/apple slices.jpg', 'key': 'i', 'origWidth': 409, 'origHeight': 410, 'width': 409, 'height': 410, 'widthPercent': 0.45, 'rescaleHeight': False, 'trialN': 104, 'loaded': True, 'loadedTime': 5362.100000023842, 'positionName': 'RIGHT', 'positionCoords': [710.32, 179], 'bid': 3.02}]",207451.20000001788,1669840432952,cheerios,apple slices,3.16,3.02,-0.14000000000000012,apple slices,1107.0999999940395,1108,1107.7999999821186,True,i,209066.80000001192,1615.5999999940395,1669840434568,1616,HRV,HRV_0292,2022-11-30 20:35:54
105,"[{'imgObject': {}, 'id': 'popsicles', 'src': '/static/foodstim60/popsicles.jpg', 'key': 'u', 'origWidth': 410, 'origHeight': 410, 'width': 410, 'height': 410, 'widthPercent': 0.45, 'rescaleHeight': False, 'trialN': 105, 'loaded': True, 'loadedTime': 5927.300000011921, 'positionName': 'LEFT', 'positionCoords': [245.68, 179], 'bid': 3.41}, {'imgObject': {}, 'id': 'froot loops w milk', 'src': '/static/foodstim60/froot loops w milk.jpg', 'key': 'i', 'origWidth': 410, 'origHeight': 410, 'width': 410, 'height': 410, 'widthPercent': 0.45, 'rescaleHeight': False, 'trialN': 105, 'loaded': True, 'loadedTime': 5749.200000017881, 'positionName': 'RIGHT', 'positionCoords': [710.32, 179], 'bid': 3.53}]",209067.30000001192,1669840434568,popsicles,froot loops w milk,3.41,3.53,0.11999999999999966,popsicles,1201.199999988079,1213,1212.300000011921,True,u,210786.80000001192,1719.5,1669840436288,1720,HRV,HRV_0292,2022-11-30 20:35:54
106,"[{'imgObject': {}, 'id': 'popsicles', 'src': '/static/foodstim60/popsicles.jpg', 'key': 'u', 'origWidth': 410, 'origHeight': 410, 'width': 410, 'height': 410, 'widthPercent': 0.45, 'rescaleHeight': False, 'trialN': 106, 'loaded': True, 'loadedTime': 5928.200000017881, 'positionName': 'LEFT', 'positionCoords': [245.68, 179], 'bid': 3.41}, {'imgObject': {}, 'id': 'fruitsalad', 'src': '/static/foodstim60/fruitsalad.jpg', 'key': 'i', 'origWidth': 410, 'origHeight': 410, 'width': 410, 'height': 410, 'widthPercent': 0.45, 'rescaleHeight': False, 'trialN': 106, 'loaded': True, 'loadedTime': 5911.9000000059605, 'positionName': 'RIGHT', 'positionCoords': [710.32, 179], 'bid': 6.03}]",210787.30000001192,1669840436288,popsicles,fruitsalad,3.41,6.03,2.62,fruitsalad,663.1999999880791,664,663.9000000059605,True,i,211954.90000000596,1167.5999999940395,1669840437456,1168,HRV,HRV_0292,2022-11-30 20:35:54
107,"[{'imgObject': {}, 'id': 'luckycharms', 'src': '/static/foodstim60/luckycharms.jpg', 'key': 'u', 'origWidth': 410, 'origHeight': 409, 'width': 410, 'height': 409, 'widthPercent': 0.45, 'rescaleHeight': False, 'trialN': 107, 'loaded': True, 'loadedTime': 5640.200000017881, 'positionName': 'LEFT', 'positionCoords': [245.68, 179.5], 'bid': 0.98}, {'imgObject': {}, 'id': 'eggsalad', 'src': '/static/foodstim60/eggsalad.jpg', 'key': 'i', 'origWidth': 410, 'origHeight': 409, 'width': 410, 'height': 409, 'widthPercent': 0.45, 'rescaleHeight': False, 'trialN': 107, 'loaded': True, 'loadedTime': 5183.9000000059605, 'positionName': 'RIGHT', 'positionCoords': [710.32, 179.5], 'bid': 0.18}]",211955.40000000596,1669840437456,luckycharms,eggsalad,0.98,0.18,-0.8,luckycharms,1979.5999999940395,1981,1980.7000000178814,True,u,214443.0,2487.5999999940395,1669840439944,2488,HRV,HRV_0292,2022-11-30 20:35:54
108,"[{'imgObject': {}, 'id': 'veggieswithdip', 'src': '/static/foodstim60/veggieswithdip.jpg', 'key': 'u', 'origWidth': 409, 'origHeight': 409, 'width': 409, 'height': 409, 'widthPercent': 0.45, 'rescaleHeight': False, 'trialN': 108, 'loaded': True, 'loadedTime': 5704.700000017881, 'positionName': 'LEFT', 'positionCoords': [246.68, 179.5], 'bid': 0.18}, {'imgObject': {}, 'id': 'hashbrowns', 'src': '/static/foodstim60/hashbrowns.jpg', 'key': 'i', 'origWidth': 411, 'origHeight': 410, 'width': 411, 'height': 410, 'widthPercent': 0.45, 'rescaleHeight': False, 'trialN': 108, 'loaded': True, 'loadedTime': 5713.4000000059605, 'positionName': 'RIGHT', 'positionCoords': [710.32, 179], 'bid': 0.24}]",214443.70000001788,1669840439945,veggieswithdip,hashbrowns,0.18,0.24,0.06,hashbrowns,1041.9000000059605,1043,1043.0,True,i,215987.20000001788,1543.5,1669840441488,1543,HRV,HRV_0292,2022-11-30 20:35:54
