success,trial_type,trial_index,time_elapsed,internal_node_id,Block,TrialNumber,TrialTime,trialTimeDiff,FPS_avg,FPS_med,FPS_mode,TrialDur,winResizeTime,rt,block,button_pressed,MotCoh,MotDir,ColCoh,Color,ChoiceKey,Choice,Accuracy,RT,nFrames,FPS,PPD,missTrial,missTrialMsg,onsetDelay,fullScreenExitTime,canvCenter,TrialType,Score,BlockTrial,stimulus,button_labels,exp,subjectId,date
True,fullscreen,0,2637,0.0-0.0,0.0,1.0,,,,,,,,,,,,,,,,,,,,,,,,,,,,,,,,HRV,HRV_0292,2022-11-30 21:00:03
,wl-check-fps,1,7698,0.0-1.0,0.0,2.0,"[3293.2, 3295.2, 3307.6, 3321.8, 3368, 3395.4, 3405.1, 3422, 3438.1, 3455.6, 3472.7, 3488.6, 3505.3, 3524.1, 3539.4, 3555.3, 3572.5, 3589.3, 3605.5, 3622.7, 3639.3, 3655.1, 3672.8, 3689.4, 3705.4, 3722.6, 3739.4, 3758, 3774.1, 3790.5, 3807.8, 3825.3, 3840.1, 3855.8, 3872.7, 3889.3, 3907.5, 3924.9, 3940.7, 3957.9, 3973.5, 3989.7, 4006.5, 4023.8, 4041.8, 4056.8, 4075.9, 4090.6, 4106.2, 4122.1, 4139.3, 4156.2, 4172.9, 4189.4, 4207.5, 4224.5, 4242.4, 4257.5, 4274.3, 4291.6, 4307, 4323.3, 4340.8, 4356.6, 4374.2, 4390.7, 4407.6, 4423.8, 4439.7, 4456.8, 4473.9, 4489.8, 4507.3, 4525.2, 4556.8, 4573.6, 4589.8, 4606.4, 4623.7, 4639.9, 4659, 4676.4, 4691, 4707.6, 4724, 4740.8, 4757.3, 4775.5, 4791.3, 4807.8, 4824.3, 4840.7, 4857.8, 4874.4, 4891.2, 4907.2, 4923.9, 4941.1, 4957.2, 4974.8, 4991, 5007.9, 5024.5, 5043.1, 5057.5, 5074.7, 5091, 5123.5, 5140.4, 5156.1, 5173.8, 5190.4, 5207.1, 5223.9, 5240.1, 5257, 5273.8, 5290.5, 5306.2, 5323.9, 5340.9, 5357.3, 5373.8, 5395.4, 5408.9, 5424, 5440.2, 5457.4, 5474, 5490.7, 5507.4, 5524.2, 5544.6, 5556.9, 5574.6, 5590.3, 5607, 5625, 5640.4, 5657, 5673.7, 5689.7, 5707.8, 5724, 5739.9, 5757.4, 5773.9, 5789.9, 5807.5, 5824.1, 5843, 5857.7, 5874.1, 5890.9, 5907.5, 5924.3, 5943.4, 5976.2, 5976.9, 5990.5, 6006.7, 6023.6, 6040.5, 6056.6, 6074.1, 6091.2, 6107, 6124.1, 6140.9, 6156.7, 6174, 6191, 6207, 6223.9, 6240.9, 6256.9, 6276.1, 6291.4, 6306.9, 6324.4, 6341.1, 6357.7, 6374.4, 6391.1, 6407.7, 6424.7, 6441.1, 6457.9, 6473.8, 6491.4, 6508.1, 6524.8, 6541.5, 6558, 6573.9, 6591.6, 6608.2, 6624, 6641.6, 6658.3, 6674, 6692.7, 6708.3, 6725.3, 6744, 6760, 6776.1, 6791.3, 6809.9, 6826.2, 6843.8, 6859.6, 6876.2, 6896.7, 6909.7, 6929.5, 6946.8, 6958.7, 6974.8, 6991.1, 7008.2, 7024.8, 7040.9, 7057.7, 7074.8, 7091.3, 7108, 7124.8, 7142.3, 7157.9, 7175.2, 7193, 7208.5, 7225.3, 7243.3, 7258.1, 7276.6, 7292.4, 7309.9, 7326.5, 7344.7, 7358.2, 7375.8, 7396, 7409.1, 7425, 7443, 7458.9, 7475.2, 7493.3, 7510.3, 7526.8, 7542.4, 7558.9, 7575, 7591.9, 7608.8, 7625.4, 7642.1, 7659.1, 7675, 7692.1, 7709.2, 7725, 7742.2, 7759, 7775, 7792, 7808.9, 7826, 7842.7, 7858.9, 7876.2, 7892.8, 7909, 7926.1, 7942.6, 7959.1, 7976, 7992.1, 8009.1, 8025.9, 8042.5, 8059.1, 8076, 8092.6, 8109.1, 8127.9, 8144.9, 8159.2, 8177.6, 8192, 8208.8, 8225.8, 8242.8, 8258.7, 8275.7, 8292.8, 8308.8, 8326]","[3.8, 2, 12.4, 14.2, 46.2, 27.4, 9.7, 16.9, 16.1, 17.5, 17.1, 15.9, 16.7, 18.8, 15.3, 15.9, 17.2, 16.8, 16.2, 17.2, 16.6, 15.8, 17.7, 16.6, 16, 17.2, 16.8, 18.6, 16.1, 16.4, 17.3, 17.5, 14.8, 15.7, 16.9, 16.6, 18.2, 17.4, 15.8, 17.2, 15.6, 16.2, 16.8, 17.3, 18, 15, 19.1, 14.7, 15.6, 15.9, 17.2, 16.9, 16.7, 16.5, 18.1, 17, 17.9, 15.1, 16.8, 17.3, 15.4, 16.3, 17.5, 15.8, 17.6, 16.5, 16.9, 16.2, 15.9, 17.1, 17.1, 15.9, 17.5, 17.9, 31.6, 16.8, 16.2, 16.6, 17.3, 16.2, 19.1, 17.4, 14.6, 16.6, 16.4, 16.8, 16.5, 18.2, 15.8, 16.5, 16.5, 16.4, 17.1, 16.6, 16.8, 16, 16.7, 17.2, 16.1, 17.6, 16.2, 16.9, 16.6, 18.6, 14.4, 17.2, 16.3, 32.5, 16.9, 15.7, 17.7, 16.6, 16.7, 16.8, 16.2, 16.9, 16.8, 16.7, 15.7, 17.7, 17, 16.4, 16.5, 21.6, 13.5, 15.1, 16.2, 17.2, 16.6, 16.7, 16.7, 16.8, 20.4, 12.3, 17.7, 15.7, 16.7, 18, 15.4, 16.6, 16.7, 16, 18.1, 16.2, 15.9, 17.5, 16.5, 16, 17.6, 16.6, 18.9, 14.7, 16.4, 16.8, 16.6, 16.8, 19.1, 32.8, 0.7, 13.6, 16.2, 16.9, 16.9, 16.1, 17.5, 17.1, 15.8, 17.1, 16.8, 15.8, 17.3, 17, 16, 16.9, 17, 16, 19.2, 15.3, 15.5, 17.5, 16.7, 16.6, 16.7, 16.7, 16.6, 17, 16.4, 16.8, 15.9, 17.6, 16.7, 16.7, 16.7, 16.5, 15.9, 17.7, 16.6, 15.8, 17.6, 16.7, 15.7, 18.7, 15.6, 17, 18.7, 16, 16.1, 15.2, 18.6, 16.3, 17.6, 15.8, 16.6, 20.5, 13, 19.8, 17.3, 11.9, 16.1, 16.3, 17.1, 16.6, 16.1, 16.8, 17.1, 16.5, 16.7, 16.8, 17.5, 15.6, 17.3, 17.8, 15.5, 16.8, 18, 14.8, 18.5, 15.8, 17.5, 16.6, 18.2, 13.5, 17.6, 20.2, 13.1, 15.9, 18, 15.9, 16.3, 18.1, 17, 16.5, 15.6, 16.5, 16.1, 16.9, 16.9, 16.6, 16.7, 17, 15.9, 17.1, 17.1, 15.8, 17.2, 16.8, 16, 17, 16.9, 17.1, 16.7, 16.2, 17.3, 16.6, 16.2, 17.1, 16.5, 16.5, 16.9, 16.1, 17, 16.8, 16.6, 16.6, 16.9, 16.6, 16.5, 18.8, 17, 14.3, 18.4, 14.4, 16.8, 17, 17, 15.9, 17, 17.1, 16, 17.2]",60.0,56.0,60.0,5053.4,[],,,,,,,,,,,,,,,,,,,,,,,,,HRV,HRV_0292,2022-11-30 21:00:03
,wl-html-keyboard-response,2,23757,0.0-2.0-0.0,0.0,3.0,,,,,,,,14043.59999999404,0.0,0,,,,,,,,,,,,,,,,,,,,,,HRV,HRV_0292,2022-11-30 21:00:03
,wl-rdm,3,31003,0.0-3.0-0.0,0.0,4.0,,,,,,,[],,,,0.0,0.0,87.9,0.0,u,0.0,True,1639.9000000059605,99.0,60.0,40.0,False,,3000.0,[],"[683, 384]",ColorTask_Demo,,,,,HRV,HRV_0292,2022-11-30 21:00:03
,wl-rdm,4,35987,0.0-3.0-1.0,0.0,5.0,,,,,,,[],,,,0.0,0.0,87.9,1.0,i,1.0,True,891.4999999701977,54.0,60.0,40.0,False,,2000.0,[],"[683, 384]",ColorTask_Demo,,,,,HRV,HRV_0292,2022-11-30 21:00:03
,wl-html-keyboard-response,5,43027,0.0-3.0-2.0,0.0,6.0,,,,,,,,5031.699999988079,0.0,1,,,,,,,,,,,,,,,,,,,,,,HRV,HRV_0292,2022-11-30 21:00:03
,wl-html-keyboard-response,6,51260,0.0-4.0-0.0,0.0,7.0,,,,,,,,6218.9000000059605,0.0,0,,,,,,,,,,,,,,,,,,,,,,HRV,HRV_0292,2022-11-30 21:00:03
,wl-html-keyboard-response,7,64587,0.0-5.0-0.0,0.0,8.0,,,,,,,,11321.800000011921,0.0,0,,,,,,,,,,,,,,,,,,,,,,HRV,HRV_0292,2022-11-30 21:00:03
,wl-rdm,8,67300,0.0-6.0-0.0,0.0,9.0,,,,,,,[],,,,,,73.6,0.0,u,0.0,True,1360.7000000178814,82.0,60.0,40.0,False,,253.41684466290943,[],"[683, 384]",ColorTask,1.0,1.0,,,HRV,HRV_0292,2022-11-30 21:00:03
,wl-rdm,9,69819,0.0-6.1-0.1,0.0,10.0,,,,,,,[],,,,,,56.4,1.0,i,1.0,True,1217.0999999940395,72.0,60.0,40.0,False,,216.88457397638695,[],"[683, 384]",ColorTask,2.0,2.0,,,HRV,HRV_0292,2022-11-30 21:00:03
,wl-rdm,10,72056,0.0-6.2-0.2,0.0,11.0,,,,,,,[],,,,,,87.9,0.0,u,0.0,True,823.2999999821186,50.0,60.0,40.0,False,,341.9515966948752,[],"[683, 384]",ColorTask,3.0,3.0,,,HRV,HRV_0292,2022-11-30 21:00:03
,wl-rdm,11,74658,0.0-6.3-0.3,0.0,12.0,,,,,,,[],,,,,,50.0,1.0,u,0.0,False,1291.4000000059605,78.0,60.0,40.0,False,,248.44619808630833,[],"[683, 384]",ColorTask,2.0,4.0,,,HRV,HRV_0292,2022-11-30 21:00:03
,wl-rdm,12,77459,0.0-6.4-0.4,0.0,13.0,,,,,,,[],,,,,,50.0,1.0,i,1.0,True,1419.9000000059605,85.0,60.0,40.0,False,,313.3085392136493,[],"[683, 384]",ColorTask,3.0,5.0,,,HRV,HRV_0292,2022-11-30 21:00:03
,wl-rdm,13,79978,0.0-6.5-0.5,0.0,14.0,,,,,,,[],,,,,,62.5,0.0,u,0.0,True,1183.300000011921,71.0,60.0,40.0,False,,258.04206461655997,[],"[683, 384]",ColorTask,4.0,6.0,,,HRV,HRV_0292,2022-11-30 21:00:03
,wl-rdm,14,82164,0.0-6.6-0.6,0.0,15.0,,,,,,,[],,,,,,73.6,1.0,i,1.0,True,813.6999999880791,49.0,60.0,40.0,False,,301.29014512955746,[],"[683, 384]",ColorTask,5.0,7.0,,,HRV,HRV_0292,2022-11-30 21:00:03
,wl-rdm,15,84566,0.0-6.7-0.7,0.0,16.0,,,,,,,[],,,,,,62.5,1.0,i,1.0,True,1026.9000000059605,62.0,60.0,40.0,False,,309.5218780796596,[],"[683, 384]",ColorTask,6.0,8.0,,,HRV,HRV_0292,2022-11-30 21:00:03
,wl-rdm,16,87320,0.0-6.8-0.8,0.0,17.0,,,,,,,[],,,,,,53.2,0.0,u,0.0,True,1358.2999999821186,82.0,60.0,40.0,False,,326.71497616173326,[],"[683, 384]",ColorTask,7.0,9.0,,,HRV,HRV_0292,2022-11-30 21:00:03
,wl-rdm,17,89421,0.0-6.9-0.9,0.0,18.0,,,,,,,[],,,,,,62.5,1.0,i,1.0,True,816.4000000059605,49.0,60.0,40.0,False,,220.17346228108804,[],"[683, 384]",ColorTask,8.0,10.0,,,HRV,HRV_0292,2022-11-30 21:00:03
,wl-rdm,18,91988,0.0-6.10-0.10,0.0,19.0,,,,,,,[],,,,,,56.4,0.0,u,0.0,True,1162.8000000417233,70.0,60.0,40.0,False,,306.95800096523163,[],"[683, 384]",ColorTask,9.0,11.0,,,HRV,HRV_0292,2022-11-30 21:00:03
,wl-rdm,19,94475,0.0-6.11-0.11,0.0,20.0,,,,,,,[],,,,,,50.0,0.0,i,1.0,False,1144.699999988079,69.0,60.0,40.0,False,,270.17720546353064,[],"[683, 384]",ColorTask,8.0,12.0,,,HRV,HRV_0292,2022-11-30 21:00:03
,wl-rdm,20,97126,0.0-6.12-0.12,0.0,21.0,,,,,,,[],,,,,,56.4,0.0,u,0.0,True,1252.5999999940395,74.0,60.0,40.0,False,,328.4205714912297,[],"[683, 384]",ColorTask,9.0,13.0,,,HRV,HRV_0292,2022-11-30 21:00:03
,wl-rdm,21,99630,0.0-6.13-0.13,0.0,22.0,,,,,,,[],,,,,,62.5,0.0,u,0.0,True,1062.699999988079,63.0,60.0,40.0,False,,372.27207360208166,[],"[683, 384]",ColorTask,10.0,14.0,,,HRV,HRV_0292,2022-11-30 21:00:03
,wl-rdm,22,102280,0.0-6.14-0.14,0.0,23.0,,,,,,,[],,,,,,56.4,1.0,i,1.0,True,1196.7999999821186,72.0,60.0,40.0,False,,384.16167730437144,[],"[683, 384]",ColorTask,11.0,15.0,,,HRV,HRV_0292,2022-11-30 21:00:03
,wl-rdm,23,104816,0.0-6.15-0.15,0.0,24.0,,,,,,,[],,,,,,56.4,0.0,u,0.0,True,1055.0999999940395,64.0,60.0,40.0,False,,383.72338161721547,[],"[683, 384]",ColorTask,12.0,16.0,,,HRV,HRV_0292,2022-11-30 21:00:03
,wl-rdm,24,106853,0.0-6.16-0.16,0.0,25.0,,,,,,,[],,,,,,87.9,1.0,i,1.0,True,744.8999999761581,45.0,60.0,40.0,False,,232.13991418482578,[],"[683, 384]",ColorTask,13.0,17.0,,,HRV,HRV_0292,2022-11-30 21:00:03
,wl-rdm,25,108936,0.0-6.17-0.17,0.0,26.0,,,,,,,[],,,,,,87.9,1.0,i,1.0,True,668.6999999880791,40.0,60.0,40.0,False,,340.12443625731413,[],"[683, 384]",ColorTask,14.0,18.0,,,HRV,HRV_0292,2022-11-30 21:00:03
,wl-rdm,26,111455,0.0-6.18-0.18,0.0,27.0,,,,,,,[],,,,,,50.0,1.0,i,1.0,True,1141.199999988079,69.0,60.0,40.0,False,,303.5596563861758,[],"[683, 384]",ColorTask,15.0,19.0,,,HRV,HRV_0292,2022-11-30 21:00:03
,wl-rdm,27,113909,0.0-6.19-0.19,0.0,28.0,,,,,,,[],,,,,,53.2,1.0,i,1.0,True,1115.2999999821186,67.0,60.0,40.0,False,,269.37923799844924,[],"[683, 384]",ColorTask,16.0,20.0,,,HRV,HRV_0292,2022-11-30 21:00:03
,wl-rdm,28,116277,0.0-6.20-0.20,0.0,29.0,,,,,,,[],,,,,,56.4,1.0,i,1.0,True,1026.5,62.0,60.0,40.0,False,,268.8307552621964,[],"[683, 384]",ColorTask,17.0,21.0,,,HRV,HRV_0292,2022-11-30 21:00:03
,wl-rdm,29,119063,0.0-6.21-0.21,0.0,30.0,,,,,,,[],,,,,,56.4,0.0,u,0.0,True,1430.0,86.0,60.0,40.0,False,,285.015822462071,[],"[683, 384]",ColorTask,18.0,22.0,,,HRV,HRV_0292,2022-11-30 21:00:03
,wl-rdm,30,121649,0.0-6.22-0.22,0.0,31.0,,,,,,,[],,,,,,53.2,0.0,i,1.0,False,1277.1000000238419,77.0,60.0,40.0,False,,224.50623503029954,[],"[683, 384]",ColorTask,17.0,23.0,,,HRV,HRV_0292,2022-11-30 21:00:03
,wl-rdm,31,124017,0.0-6.23-0.23,0.0,32.0,,,,,,,[],,,,,,62.5,0.0,u,0.0,True,1082.300000011921,65.0,60.0,40.0,False,,214.06769550803762,[],"[683, 384]",ColorTask,18.0,24.0,,,HRV,HRV_0292,2022-11-30 21:00:03
,wl-rdm,32,126021,0.0-6.24-0.24,0.0,33.0,,,,,,,[],,,,,,73.6,1.0,i,1.0,True,637.0999999940395,39.0,60.0,40.0,False,,288.93835986330646,[],"[683, 384]",ColorTask,19.0,25.0,,,HRV,HRV_0292,2022-11-30 21:00:03
,wl-rdm,33,128120,0.0-6.25-0.25,0.0,34.0,,,,,,,[],,,,,,73.6,1.0,i,1.0,True,797.8999999761581,48.0,60.0,40.0,False,,224.25973755015139,[],"[683, 384]",ColorTask,20.0,26.0,,,HRV,HRV_0292,2022-11-30 21:00:03
,wl-rdm,34,130191,0.0-6.26-0.26,0.0,35.0,,,,,,,[],,,,,,73.6,1.0,i,1.0,True,758.8000000119209,46.0,60.0,40.0,False,,219.13764949941574,[],"[683, 384]",ColorTask,21.0,27.0,,,HRV,HRV_0292,2022-11-30 21:00:03
,wl-rdm,35,132692,0.0-6.27-0.27,0.0,36.0,,,,,,,[],,,,,,50.0,0.0,u,0.0,True,1161.699999988079,70.0,60.0,40.0,False,,259.3356238411469,[],"[683, 384]",ColorTask,22.0,28.0,,,HRV,HRV_0292,2022-11-30 21:00:03
,wl-rdm,36,135430,0.0-6.28-0.28,0.0,37.0,,,,,,,[],,,,,,53.2,1.0,i,1.0,True,1419.699999988079,84.0,60.0,40.0,False,,240.3511684956537,[],"[683, 384]",ColorTask,23.0,29.0,,,HRV,HRV_0292,2022-11-30 21:00:03
,wl-rdm,37,137297,0.0-6.29-0.29,0.0,38.0,,,,,,,[],,,,,,87.9,1.0,i,1.0,True,590.6999999880791,36.0,60.0,40.0,False,,207.97552329398354,[],"[683, 384]",ColorTask,24.0,30.0,,,HRV,HRV_0292,2022-11-30 21:00:03
,wl-rdm,38,139367,0.0-6.30-0.30,0.0,39.0,,,,,,,[],,,,,,62.5,0.0,u,0.0,True,768.6999999880791,47.0,60.0,40.0,False,,218.45896414890922,[],"[683, 384]",ColorTask,25.0,31.0,,,HRV,HRV_0292,2022-11-30 21:00:03
,wl-rdm,39,142734,0.0-6.31-0.31,0.0,40.0,,,,,,,[],,,,,,50.0,1.0,i,1.0,True,2055.0,124.0,60.0,40.0,False,,247.13117681178622,[],"[683, 384]",ColorTask,26.0,32.0,,,HRV,HRV_0292,2022-11-30 21:00:03
,wl-rdm,40,144736,0.0-6.32-0.32,0.0,41.0,,,,,,,[],,,,,,87.9,0.0,u,0.0,True,674.5000000298023,41.0,60.0,40.0,False,,232.0871128858437,[],"[683, 384]",ColorTask,27.0,33.0,,,HRV,HRV_0292,2022-11-30 21:00:03
,wl-rdm,41,146806,0.0-6.33-0.33,0.0,42.0,,,,,,,[],,,,,,62.5,1.0,i,1.0,True,776.5999999940395,47.0,60.0,40.0,False,,223.48033482876855,[],"[683, 384]",ColorTask,28.0,34.0,,,HRV,HRV_0292,2022-11-30 21:00:03
,wl-rdm,42,150074,0.0-6.34-0.34,0.0,43.0,,,,,,,[],,,,,,53.2,0.0,u,0.0,True,1850.4000000059605,111.0,60.0,40.0,False,,350.6345316215292,[],"[683, 384]",ColorTask,29.0,35.0,,,HRV,HRV_0292,2022-11-30 21:00:03
,wl-rdm,43,153077,0.0-6.35-0.35,0.0,44.0,,,,,,,[],,,,,,56.4,0.0,u,0.0,True,1646.9000000357628,99.0,60.0,40.0,False,,293.5921350524401,[],"[683, 384]",ColorTask,30.0,36.0,,,HRV,HRV_0292,2022-11-30 21:00:03
,wl-rdm,44,155079,0.0-6.36-0.36,0.0,45.0,,,,,,,[],,,,,,87.9,0.0,u,0.0,True,698.5,42.0,60.0,40.0,False,,238.86283116271548,[],"[683, 384]",ColorTask,31.0,37.0,,,HRV,HRV_0292,2022-11-30 21:00:03
,wl-rdm,45,157582,0.0-6.37-0.37,0.0,46.0,,,,,,,[],,,,,,62.5,0.0,u,0.0,True,1170.800000011921,70.0,60.0,40.0,False,,251.6361437838397,[],"[683, 384]",ColorTask,32.0,38.0,,,HRV,HRV_0292,2022-11-30 21:00:03
,wl-rdm,46,159603,0.0-6.38-0.38,0.0,47.0,,,,,,,[],,,,,,87.9,1.0,i,1.0,True,593.9000000059605,36.0,60.0,40.0,False,,316.90045583049755,[],"[683, 384]",ColorTask,33.0,39.0,,,HRV,HRV_0292,2022-11-30 21:00:03
,wl-rdm,47,161883,0.0-6.39-0.39,0.0,48.0,,,,,,,[],,,,,,73.6,1.0,i,1.0,True,1007.5,61.0,60.0,40.0,False,,204.90418815247864,[],"[683, 384]",ColorTask,34.0,40.0,,,HRV,HRV_0292,2022-11-30 21:00:03
,wl-rdm,48,165221,0.0-6.40-0.40,0.0,49.0,,,,,,,[],,,,,,56.4,0.0,u,0.0,True,1982.2000000178814,119.0,60.0,40.0,False,,296.0012783271226,[],"[683, 384]",ColorTask,35.0,41.0,,,HRV,HRV_0292,2022-11-30 21:00:03
,wl-rdm,49,168390,0.0-6.41-0.41,0.0,50.0,,,,,,,[],,,,,,62.5,0.0,u,0.0,True,1769.6000000238419,106.0,60.0,40.0,False,,324.70278248067234,[],"[683, 384]",ColorTask,36.0,42.0,,,HRV,HRV_0292,2022-11-30 21:00:03
,wl-rdm,50,171058,0.0-6.42-0.42,0.0,51.0,,,,,,,[],,,,,,62.5,1.0,i,1.0,True,1341.9000000059605,81.0,60.0,40.0,False,,232.75323028021336,[],"[683, 384]",ColorTask,37.0,43.0,,,HRV,HRV_0292,2022-11-30 21:00:03
,wl-rdm,51,174264,0.0-6.43-0.43,0.0,52.0,,,,,,,[],,,,,,56.4,1.0,i,1.0,True,1887.3999999761581,113.0,60.0,40.0,False,,243.14453805401274,[],"[683, 384]",ColorTask,38.0,44.0,,,HRV,HRV_0292,2022-11-30 21:00:03
,wl-rdm,52,177667,0.0-6.44-0.44,0.0,53.0,,,,,,,[],,,,,,56.4,0.0,u,0.0,True,2041.0000000298023,123.0,60.0,40.0,False,,274.9222692117393,[],"[683, 384]",ColorTask,39.0,45.0,,,HRV,HRV_0292,2022-11-30 21:00:03
,wl-rdm,53,180887,0.0-6.45-0.45,0.0,54.0,,,,,,,[],,,,,,53.2,0.0,u,0.0,True,1891.4000000059605,114.0,60.0,40.0,False,,260.7840872246871,[],"[683, 384]",ColorTask,40.0,46.0,,,HRV,HRV_0292,2022-11-30 21:00:03
,wl-rdm,54,184574,0.0-6.46-0.46,0.0,55.0,,,,,,,[],,,,,,53.2,1.0,i,1.0,True,2313.0999999940395,139.0,60.0,40.0,False,,308.05286938295967,[],"[683, 384]",ColorTask,41.0,47.0,,,HRV,HRV_0292,2022-11-30 21:00:03
,wl-rdm,55,186725,0.0-6.47-0.47,0.0,56.0,,,,,,,[],,,,,,87.9,0.0,u,0.0,True,672.9000000059605,41.0,60.0,40.0,False,,390.2395380694138,[],"[683, 384]",ColorTask,42.0,48.0,,,HRV,HRV_0292,2022-11-30 21:00:03
,wl-rdm,56,190177,0.0-6.48-0.48,0.0,57.0,,,,,,,[],,,,,,50.0,0.0,u,0.0,True,1974.9000000059605,118.0,60.0,40.0,False,,395.6506475723386,[],"[683, 384]",ColorTask,43.0,49.0,,,HRV,HRV_0292,2022-11-30 21:00:03
,wl-rdm,57,193313,0.0-6.49-0.49,0.0,58.0,,,,,,,[],,,,,,50.0,1.0,u,0.0,False,1687.8999999761581,102.0,60.0,40.0,False,,371.07785891513004,[],"[683, 384]",ColorTask,42.0,50.0,,,HRV,HRV_0292,2022-11-30 21:00:03
,wl-rdm,58,195866,0.0-6.50-0.50,0.0,59.0,,,,,,,[],,,,,,62.5,1.0,i,1.0,True,1219.2000000178814,73.0,60.0,40.0,False,,255.67021084956244,[],"[683, 384]",ColorTask,43.0,51.0,,,HRV,HRV_0292,2022-11-30 21:00:03
,wl-rdm,59,198385,0.0-6.51-0.51,0.0,60.0,,,,,,,[],,,,,,73.6,0.0,u,0.0,True,1222.5,74.0,60.0,40.0,False,,210.9055927969053,[],"[683, 384]",ColorTask,44.0,52.0,,,HRV,HRV_0292,2022-11-30 21:00:03
,wl-rdm,60,201504,0.0-6.52-0.52,0.0,61.0,,,,,,,[],,,,,,50.0,1.0,i,1.0,True,1807.800000011921,109.0,60.0,40.0,False,,240.64503548274078,[],"[683, 384]",ColorTask,45.0,53.0,,,HRV,HRV_0292,2022-11-30 21:00:03
,wl-rdm,61,203490,0.0-6.53-0.53,0.0,62.0,,,,,,,[],,,,,,87.9,0.0,u,0.0,True,707.3000000417233,42.0,60.0,40.0,False,,204.345850931859,[],"[683, 384]",ColorTask,46.0,54.0,,,HRV,HRV_0292,2022-11-30 21:00:03
,wl-rdm,62,206107,0.0-6.54-0.54,0.0,63.0,,,,,,,[],,,,,,53.2,1.0,i,1.0,True,1204.5,72.0,60.0,40.0,False,,331.2950671153245,[],"[683, 384]",ColorTask,47.0,55.0,,,HRV,HRV_0292,2022-11-30 21:00:03
,wl-rdm,63,208693,0.0-6.55-0.55,0.0,64.0,,,,,,,[],,,,,,73.6,1.0,i,1.0,True,1143.4000000059605,69.0,60.0,40.0,False,,356.4949164873191,[],"[683, 384]",ColorTask,48.0,56.0,,,HRV,HRV_0292,2022-11-30 21:00:03
,wl-rdm,64,211045,0.0-6.56-0.56,0.0,65.0,,,,,,,[],,,,,,73.6,1.0,i,1.0,True,948.5999999940395,57.0,60.0,40.0,False,,343.4082954979936,[],"[683, 384]",ColorTask,49.0,57.0,,,HRV,HRV_0292,2022-11-30 21:00:03
,wl-rdm,65,213933,0.0-6.57-0.57,0.0,66.0,,,,,,,[],,,,,,53.2,0.0,i,1.0,False,1589.9000000059605,96.0,60.0,40.0,False,,220.63855637434193,[],"[683, 384]",ColorTask,48.0,58.0,,,HRV,HRV_0292,2022-11-30 21:00:03
,wl-rdm,66,215950,0.0-6.58-0.58,0.0,67.0,,,,,,,[],,,,,,87.9,1.0,i,1.0,True,589.8000000417233,35.0,60.0,40.0,False,,355.3102916658007,[],"[683, 384]",ColorTask,49.0,59.0,,,HRV,HRV_0292,2022-11-30 21:00:03
,wl-rdm,67,217901,0.0-6.59-0.59,0.0,68.0,,,,,,,[],,,,,,87.9,0.0,u,0.0,True,623.0,38.0,60.0,40.0,False,,253.75218496085841,[],"[683, 384]",ColorTask,50.0,60.0,,,HRV,HRV_0292,2022-11-30 21:00:03
,wl-rdm,68,219920,0.0-6.60-0.60,0.0,69.0,,,,,,,[],,,,,,87.9,1.0,i,1.0,True,660.1999999880791,40.0,60.0,40.0,False,,269.9614160003332,[],"[683, 384]",ColorTask,51.0,61.0,,,HRV,HRV_0292,2022-11-30 21:00:03
,wl-rdm,69,221940,0.0-6.61-0.61,0.0,70.0,,,,,,,[],,,,,,73.6,0.0,u,0.0,True,695.9000000059605,42.0,60.0,40.0,False,,249.279076386001,[],"[683, 384]",ColorTask,52.0,62.0,,,HRV,HRV_0292,2022-11-30 21:00:03
,wl-rdm,70,224659,0.0-6.62-0.62,0.0,71.0,,,,,,,[],,,,,,53.2,0.0,u,0.0,True,1379.0999999940395,83.0,60.0,40.0,False,,262.8772860511091,[],"[683, 384]",ColorTask,53.0,63.0,,,HRV,HRV_0292,2022-11-30 21:00:03
,wl-rdm,71,227043,0.0-6.63-0.63,0.0,72.0,,,,,,,[],,,,,,53.2,1.0,i,1.0,True,1054.800000011921,64.0,60.0,40.0,False,,216.6219908233557,[],"[683, 384]",ColorTask,54.0,64.0,,,HRV,HRV_0292,2022-11-30 21:00:03
,wl-rdm,72,229462,0.0-6.64-0.64,0.0,73.0,,,,,,,[],,,,,,50.0,0.0,i,1.0,False,1056.800000011921,64.0,60.0,40.0,False,,291.9091889431901,[],"[683, 384]",ColorTask,53.0,65.0,,,HRV,HRV_0292,2022-11-30 21:00:03
,wl-rdm,73,231648,0.0-6.65-0.65,0.0,74.0,,,,,,,[],,,,,,73.6,1.0,i,1.0,True,901.4000000059605,55.0,60.0,40.0,False,,211.72059881625293,[],"[683, 384]",ColorTask,54.0,66.0,,,HRV,HRV_0292,2022-11-30 21:00:03
,wl-rdm,74,233667,0.0-6.66-0.66,0.0,75.0,,,,,,,[],,,,,,73.6,0.0,u,0.0,True,713.8000000119209,43.0,60.0,40.0,False,,237.16937146100153,[],"[683, 384]",ColorTask,55.0,67.0,,,HRV,HRV_0292,2022-11-30 21:00:03
,wl-rdm,75,235568,0.0-6.67-0.67,0.0,76.0,,,,,,,[],,,,,,87.9,0.0,u,0.0,True,603.7999999821186,37.0,60.0,40.0,False,,233.06014883057838,[],"[683, 384]",ColorTask,56.0,68.0,,,HRV,HRV_0292,2022-11-30 21:00:03
,wl-rdm,76,238921,0.0-6.68-0.68,0.0,77.0,,,,,,,[],,,,,,53.2,1.0,u,0.0,False,2074.2000000178814,125.0,60.0,40.0,False,,215.87939395839712,[],"[683, 384]",ColorTask,55.0,69.0,,,HRV,HRV_0292,2022-11-30 21:00:03
,wl-rdm,77,241239,0.0-6.69-0.69,0.0,78.0,,,,,,,[],,,,,,50.0,1.0,i,1.0,True,1008.5,61.0,60.0,40.0,False,,230.05317086751933,[],"[683, 384]",ColorTask,56.0,70.0,,,HRV,HRV_0292,2022-11-30 21:00:03
,wl-rdm,78,243626,0.0-6.70-0.70,0.0,79.0,,,,,,,[],,,,,,50.0,0.0,i,1.0,False,1107.4999999701977,67.0,60.0,40.0,False,,215.117184026151,[],"[683, 384]",ColorTask,55.0,71.0,,,HRV,HRV_0292,2022-11-30 21:00:03
,wl-rdm,79,246445,0.0-6.71-0.71,0.0,80.0,,,,,,,[],,,,,,56.4,1.0,i,1.0,True,1409.4000000357628,84.0,60.0,40.0,False,,337.13649952217224,[],"[683, 384]",ColorTask,56.0,72.0,,,HRV,HRV_0292,2022-11-30 21:00:03
,wl-rdm,80,248532,0.0-6.72-0.72,0.0,81.0,,,,,,,[],,,,,,73.6,0.0,u,0.0,True,639.7999999821186,39.0,60.0,40.0,False,,349.45477995227236,[],"[683, 384]",ColorTask,57.0,73.0,,,HRV,HRV_0292,2022-11-30 21:00:03
,wl-rdm,81,251482,0.0-6.73-0.73,0.0,82.0,,,,,,,[],,,,,,50.0,0.0,u,0.0,True,1599.4000000059605,96.0,60.0,40.0,False,,293.85693573525907,[],"[683, 384]",ColorTask,58.0,74.0,,,HRV,HRV_0292,2022-11-30 21:00:03
,wl-rdm,82,254353,0.0-6.74-0.74,0.0,83.0,,,,,,,[],,,,,,56.4,1.0,i,1.0,True,1540.300000011921,93.0,60.0,40.0,False,,253.8112376868005,[],"[683, 384]",ColorTask,59.0,75.0,,,HRV,HRV_0292,2022-11-30 21:00:03
,wl-rdm,83,257487,0.0-6.75-0.75,0.0,84.0,,,,,,,[],,,,,,50.0,0.0,u,0.0,True,1771.4000000059605,107.0,60.0,40.0,False,,276.4112775650034,[],"[683, 384]",ColorTask,60.0,76.0,,,HRV,HRV_0292,2022-11-30 21:00:03
,wl-rdm,84,259724,0.0-6.76-0.76,0.0,85.0,,,,,,,[],,,,,,62.5,1.0,i,1.0,True,863.5999999940395,52.0,60.0,40.0,False,,296.2633474527133,[],"[683, 384]",ColorTask,61.0,77.0,,,HRV,HRV_0292,2022-11-30 21:00:03
,wl-rdm,85,261625,0.0-6.77-0.77,0.0,86.0,,,,,,,[],,,,,,87.9,1.0,i,1.0,True,605.4000000059605,37.0,60.0,40.0,False,,228.02909666951834,[],"[683, 384]",ColorTask,62.0,78.0,,,HRV,HRV_0292,2022-11-30 21:00:03
,wl-rdm,86,264411,0.0-6.78-0.78,0.0,87.0,,,,,,,[],,,,,,50.0,0.0,i,1.0,False,1327.5,80.0,60.0,40.0,False,,398.91762584068067,[],"[683, 384]",ColorTask,61.0,79.0,,,HRV,HRV_0292,2022-11-30 21:00:03
,wl-rdm,87,268214,0.0-6.79-0.79,0.0,88.0,,,,,,,[],,,,,,62.5,0.0,u,0.0,True,2341.0,141.0,60.0,40.0,False,,393.0055899972664,[],"[683, 384]",ColorTask,62.0,80.0,,,HRV,HRV_0292,2022-11-30 21:00:03
,wl-rdm,88,271166,0.0-6.80-0.80,0.0,89.0,,,,,,,[],,,,,,62.5,0.0,u,0.0,True,1497.7999999821186,89.0,60.0,40.0,False,,394.39549224767444,[],"[683, 384]",ColorTask,63.0,81.0,,,HRV,HRV_0292,2022-11-30 21:00:03
,wl-rdm,89,273170,0.0-6.81-0.81,0.0,90.0,,,,,,,[],,,,,,87.9,0.0,u,0.0,True,609.0999999940395,37.0,60.0,40.0,False,,305.0653520756172,[],"[683, 384]",ColorTask,64.0,82.0,,,HRV,HRV_0292,2022-11-30 21:00:03
,wl-rdm,90,275188,0.0-6.82-0.82,0.0,91.0,,,,,,,[],,,,,,50.0,0.0,i,1.0,False,697.8000000119209,42.0,60.0,40.0,False,,265.84832626258384,[],"[683, 384]",ColorTask,63.0,83.0,,,HRV,HRV_0292,2022-11-30 21:00:03
,wl-rdm,91,278141,0.0-6.83-0.83,0.0,92.0,,,,,,,[],,,,,,56.4,1.0,i,1.0,True,1545.9000000059605,93.0,60.0,40.0,False,,316.426330286271,[],"[683, 384]",ColorTask,64.0,84.0,,,HRV,HRV_0292,2022-11-30 21:00:03
,wl-rdm,92,281410,0.0-6.84-0.84,0.0,93.0,,,,,,,[],,,,,,53.2,1.0,u,0.0,False,1922.2999999821186,116.0,60.0,40.0,False,,262.556942345755,[],"[683, 384]",ColorTask,63.0,85.0,,,HRV,HRV_0292,2022-11-30 21:00:03
,wl-rdm,93,283595,0.0-6.85-0.85,0.0,94.0,,,,,,,[],,,,,,73.6,1.0,i,1.0,True,777.1000000238419,47.0,60.0,40.0,False,,347.2090609251336,[],"[683, 384]",ColorTask,64.0,86.0,,,HRV,HRV_0292,2022-11-30 21:00:03
,wl-rdm,94,286899,0.0-6.86-0.86,0.0,95.0,,,,,,,[],,,,,,53.2,1.0,i,1.0,True,1973.199999988079,119.0,60.0,40.0,False,,254.99498675246502,[],"[683, 384]",ColorTask,65.0,87.0,,,HRV,HRV_0292,2022-11-30 21:00:03
,wl-rdm,95,289249,0.0-6.87-0.87,0.0,96.0,,,,,,,[],,,,,,73.6,0.0,u,0.0,True,1005.0999999940395,59.0,60.0,40.0,False,,278.1631094863685,[],"[683, 384]",ColorTask,66.0,88.0,,,HRV,HRV_0292,2022-11-30 21:00:03
,wl-rdm,96,291551,0.0-6.88-0.88,0.0,97.0,,,,,,,[],,,,,,73.6,0.0,u,0.0,True,958.9000000059605,58.0,60.0,40.0,False,,277.74860093882796,[],"[683, 384]",ColorTask,67.0,89.0,,,HRV,HRV_0292,2022-11-30 21:00:03
,wl-rdm,97,294373,0.0-6.89-0.89,0.0,98.0,,,,,,,[],,,,,,62.5,1.0,i,1.0,True,1495.0,90.0,60.0,40.0,False,,251.2089048830579,[],"[683, 384]",ColorTask,68.0,90.0,,,HRV,HRV_0292,2022-11-30 21:00:03
,wl-rdm,98,296340,0.0-6.90-0.90,0.0,99.0,,,,,,,[],,,,,,87.9,1.0,i,1.0,True,629.0999999940395,38.0,60.0,40.0,False,,260.4579606942474,[],"[683, 384]",ColorTask,69.0,91.0,,,HRV,HRV_0292,2022-11-30 21:00:03
,wl-rdm,99,298976,0.0-6.91-0.91,0.0,100.0,,,,,,,[],,,,,,62.5,0.0,u,0.0,True,1327.4000000059605,79.0,60.0,40.0,False,,230.7011636096024,[],"[683, 384]",ColorTask,70.0,92.0,,,HRV,HRV_0292,2022-11-30 21:00:03
,wl-rdm,100,303095,0.0-6.92-0.92,0.0,101.0,,,,,,,[],,,,,,53.2,1.0,u,0.0,False,2771.7999999821186,166.0,60.0,40.0,False,,280.0825681628353,[],"[683, 384]",ColorTask,69.0,93.0,,,HRV,HRV_0292,2022-11-30 21:00:03
,wl-rdm,101,306465,0.0-6.93-0.93,0.0,102.0,,,,,,,[],,,,,,53.2,0.0,i,1.0,False,2059.4000000059605,124.0,60.0,40.0,False,,237.35753266912064,[],"[683, 384]",ColorTask,68.0,94.0,,,HRV,HRV_0292,2022-11-30 21:00:03
,wl-rdm,102,309435,0.0-6.94-0.94,0.0,103.0,,,,,,,[],,,,,,56.4,0.0,u,0.0,True,1588.800000011921,96.0,60.0,40.0,False,,298.316394038231,[],"[683, 384]",ColorTask,69.0,95.0,,,HRV,HRV_0292,2022-11-30 21:00:03
,wl-rdm,103,311404,0.0-6.95-0.95,0.0,104.0,,,,,,,[],,,,,,73.6,0.0,u,0.0,True,692.5999999940395,42.0,60.0,40.0,False,,207.3316840238254,[],"[683, 384]",ColorTask,70.0,96.0,,,HRV,HRV_0292,2022-11-30 21:00:03
,wl-rdm,104,313657,0.0-6.96-0.96,0.0,105.0,,,,,,,[],,,,,,53.2,0.0,u,0.0,True,887.3000000119209,54.0,60.0,40.0,False,,295.3468411141497,[],"[683, 384]",ColorTask,71.0,97.0,,,HRV,HRV_0292,2022-11-30 21:00:03
,wl-rdm,105,317494,0.0-6.97-0.97,0.0,106.0,,,,,,,[],,,,,,62.5,1.0,u,0.0,False,2415.699999988079,145.0,60.0,40.0,False,,350.8194206561086,[],"[683, 384]",ColorTask,70.0,98.0,,,HRV,HRV_0292,2022-11-30 21:00:03
,wl-rdm,106,320764,0.0-6.98-0.98,0.0,107.0,,,,,,,[],,,,,,53.2,0.0,u,0.0,True,1843.300000011921,111.0,60.0,40.0,False,,357.07755750008903,[],"[683, 384]",ColorTask,71.0,99.0,,,HRV,HRV_0292,2022-11-30 21:00:03
,wl-rdm,107,324666,0.0-6.99-0.99,0.0,108.0,,,,,,,[],,,,,,56.4,1.0,i,1.0,True,2628.4999999701977,158.0,60.0,40.0,False,,204.0059035789239,[],"[683, 384]",ColorTask,72.0,100.0,,,HRV,HRV_0292,2022-11-30 21:00:03
,wl-rdm,108,326953,0.0-6.100-0.100,0.0,109.0,,,,,,,[],,,,,,73.6,0.0,u,0.0,True,907.4000000059605,55.0,60.0,40.0,False,,303.14585985537497,[],"[683, 384]",ColorTask,73.0,101.0,,,HRV,HRV_0292,2022-11-30 21:00:03
,wl-rdm,109,330171,0.0-6.101-0.101,0.0,110.0,,,,,,,[],,,,,,56.4,0.0,u,0.0,True,1813.9000000059605,109.0,60.0,40.0,False,,347.83584219886427,[],"[683, 384]",ColorTask,74.0,102.0,,,HRV,HRV_0292,2022-11-30 21:00:03
,wl-rdm,110,332523,0.0-6.102-0.102,0.0,111.0,,,,,,,[],,,,,,50.0,1.0,u,0.0,False,996.1999999880791,60.0,60.0,40.0,False,,290.5809070560941,[],"[683, 384]",ColorTask,73.0,103.0,,,HRV,HRV_0292,2022-11-30 21:00:03
,wl-rdm,111,334690,0.0-6.103-0.103,0.0,112.0,,,,,,,[],,,,,,87.9,0.0,u,0.0,True,846.6000000238419,50.0,60.0,40.0,False,,251.53011578683086,[],"[683, 384]",ColorTask,74.0,104.0,,,HRV,HRV_0292,2022-11-30 21:00:03
,wl-rdm,112,336728,0.0-6.104-0.104,0.0,113.0,,,,,,,[],,,,,,62.5,1.0,i,1.0,True,715.5999999940395,43.0,60.0,40.0,False,,253.21846686296075,[],"[683, 384]",ColorTask,75.0,105.0,,,HRV,HRV_0292,2022-11-30 21:00:03
,wl-rdm,113,338611,0.0-6.105-0.105,0.0,114.0,,,,,,,[],,,,,,87.9,1.0,i,1.0,True,590.2000000178814,36.0,60.0,40.0,False,,211.9351090567096,[],"[683, 384]",ColorTask,76.0,106.0,,,HRV,HRV_0292,2022-11-30 21:00:03
,wl-rdm,114,341415,0.0-6.106-0.106,0.0,115.0,,,,,,,[],,,,,,50.0,1.0,i,1.0,True,1510.8999999761581,91.0,60.0,40.0,False,,228.70253052662335,[],"[683, 384]",ColorTask,77.0,107.0,,,HRV,HRV_0292,2022-11-30 21:00:03
,wl-rdm,115,344516,0.0-6.107-0.107,0.0,116.0,,,,,,,[],,,,,,56.4,1.0,i,1.0,True,1684.2999999821186,100.0,60.0,40.0,False,,359.5749802679577,[],"[683, 384]",ColorTask,78.0,108.0,,,HRV,HRV_0292,2022-11-30 21:00:03
,wl-html-keyboard-response,116,352609,0.0-7.0-0.0,1.0,117.0,,,,,,,,6077.0999999940395,1.0,0,,,,,,,,,,,,,,,,,,,,,,HRV,HRV_0292,2022-11-30 21:00:03
,wl-rdm,117,355510,0.0-8.0-0.0,1.0,118.0,,,,,,,[],,,,,,62.5,0.0,u,0.0,True,1448.0,87.0,60.0,40.0,False,,386.39680289800367,[],"[683, 384]",ColorTask,79.0,1.0,,,HRV,HRV_0292,2022-11-30 21:00:03
,wl-rdm,118,357928,0.0-8.1-0.1,1.0,119.0,,,,,,,[],,,,,,56.4,1.0,i,1.0,True,1048.9999999701977,63.0,60.0,40.0,False,,284.5202826473686,[],"[683, 384]",ColorTask,80.0,2.0,,,HRV,HRV_0292,2022-11-30 21:00:03
,wl-rdm,119,360815,0.0-8.2-0.2,1.0,120.0,,,,,,,[],,,,,,62.5,0.0,u,0.0,True,1597.4000000059605,96.0,60.0,40.0,False,,220.9945596719376,[],"[683, 384]",ColorTask,81.0,3.0,,,HRV,HRV_0292,2022-11-30 21:00:03
,wl-rdm,120,363618,0.0-8.3-0.3,1.0,121.0,,,,,,,[],,,,,,56.4,0.0,u,0.0,True,1357.699999988079,82.0,60.0,40.0,False,,358.1361867921604,[],"[683, 384]",ColorTask,82.0,4.0,,,HRV,HRV_0292,2022-11-30 21:00:03
,wl-rdm,121,366720,0.0-8.4-0.4,1.0,122.0,,,,,,,[],,,,,,50.0,1.0,u,0.0,False,1727.1000000238419,104.0,60.0,40.0,False,,312.9359491834648,[],"[683, 384]",ColorTask,81.0,5.0,,,HRV,HRV_0292,2022-11-30 21:00:03
,wl-rdm,122,368988,0.0-8.5-0.5,1.0,123.0,,,,,,,[],,,,,,53.2,0.0,u,0.0,True,956.7999999821186,58.0,60.0,40.0,False,,241.15561826934024,[],"[683, 384]",ColorTask,82.0,6.0,,,HRV,HRV_0292,2022-11-30 21:00:03
,wl-rdm,123,371475,0.0-8.6-0.6,1.0,124.0,,,,,,,[],,,,,,53.2,0.0,i,1.0,False,1199.4999999701977,73.0,60.0,40.0,False,,218.3187460171689,[],"[683, 384]",ColorTask,81.0,7.0,,,HRV,HRV_0292,2022-11-30 21:00:03
,wl-rdm,124,373610,0.0-8.7-0.7,1.0,125.0,,,,,,,[],,,,,,50.0,0.0,u,0.0,True,833.1000000238419,50.0,60.0,40.0,False,,237.19570232645702,[],"[683, 384]",ColorTask,82.0,8.0,,,HRV,HRV_0292,2022-11-30 21:00:03
,wl-rdm,125,375729,0.0-8.8-0.8,1.0,126.0,,,,,,,[],,,,,,73.6,1.0,i,1.0,True,755.9999999701977,46.0,60.0,40.0,False,,293.5674550556943,[],"[683, 384]",ColorTask,83.0,9.0,,,HRV,HRV_0292,2022-11-30 21:00:03
,wl-rdm,126,377831,0.0-8.9-0.9,1.0,127.0,,,,,,,[],,,,,,56.4,0.0,u,0.0,True,789.2999999821186,48.0,60.0,40.0,False,,247.54226541133295,[],"[683, 384]",ColorTask,84.0,10.0,,,HRV,HRV_0292,2022-11-30 21:00:03
,wl-rdm,127,380167,0.0-8.10-0.10,1.0,128.0,,,,,,,[],,,,,,50.0,0.0,i,1.0,False,1013.5,61.0,60.0,40.0,False,,236.01913399710384,[],"[683, 384]",ColorTask,83.0,11.0,,,HRV,HRV_0292,2022-11-30 21:00:03
,wl-rdm,128,382236,0.0-8.11-0.11,1.0,129.0,,,,,,,[],,,,,,73.6,0.0,u,0.0,True,782.7000000476837,47.0,60.0,40.0,False,,205.08089903931133,[],"[683, 384]",ColorTask,84.0,12.0,,,HRV,HRV_0292,2022-11-30 21:00:03
,wl-rdm,129,385154,0.0-8.12-0.12,1.0,130.0,,,,,,,[],,,,,,50.0,0.0,i,1.0,False,1561.7999999821186,94.0,60.0,40.0,False,,288.6130355620916,[],"[683, 384]",ColorTask,83.0,13.0,,,HRV,HRV_0292,2022-11-30 21:00:03
,wl-rdm,130,387390,0.0-8.13-0.13,1.0,131.0,,,,,,,[],,,,,,73.6,0.0,u,0.0,True,813.1999999880791,49.0,60.0,40.0,False,,353.666206112164,[],"[683, 384]",ColorTask,84.0,14.0,,,HRV,HRV_0292,2022-11-30 21:00:03
,wl-rdm,131,389692,0.0-8.14-0.14,1.0,132.0,,,,,,,[],,,,,,56.4,1.0,u,0.0,False,975.6999999880791,59.0,60.0,40.0,False,,251.77538541292023,[],"[683, 384]",ColorTask,83.0,15.0,,,HRV,HRV_0292,2022-11-30 21:00:03
,wl-rdm,132,392195,0.0-8.15-0.15,1.0,133.0,,,,,,,[],,,,,,53.2,1.0,i,1.0,True,1205.2000000178814,73.0,60.0,40.0,False,,231.0704290161374,[],"[683, 384]",ColorTask,84.0,16.0,,,HRV,HRV_0292,2022-11-30 21:00:03
,wl-rdm,133,395447,0.0-8.16-0.16,1.0,134.0,,,,,,,[],,,,,,56.4,1.0,u,0.0,False,1929.0,116.0,60.0,40.0,False,,254.76021435022133,[],"[683, 384]",ColorTask,83.0,17.0,,,HRV,HRV_0292,2022-11-30 21:00:03
,wl-rdm,134,397598,0.0-8.17-0.17,1.0,135.0,,,,,,,[],,,,,,87.9,0.0,u,0.0,True,825.2000000178814,50.0,60.0,40.0,False,,252.24116755307588,[],"[683, 384]",ColorTask,84.0,18.0,,,HRV,HRV_0292,2022-11-30 21:00:03
,wl-rdm,135,400351,0.0-8.18-0.18,1.0,136.0,,,,,,,[],,,,,,62.5,1.0,i,1.0,True,1339.199999988079,81.0,60.0,40.0,False,,327.5865029863321,[],"[683, 384]",ColorTask,85.0,19.0,,,HRV,HRV_0292,2022-11-30 21:00:03
,wl-rdm,136,402784,0.0-8.19-0.19,1.0,137.0,,,,,,,[],,,,,,73.6,1.0,i,1.0,True,1075.699999988079,65.0,60.0,40.0,False,,275.9666580827782,[],"[683, 384]",ColorTask,86.0,20.0,,,HRV,HRV_0292,2022-11-30 21:00:03
,wl-rdm,137,404787,0.0-8.20-0.20,1.0,138.0,,,,,,,[],,,,,,87.9,1.0,i,1.0,True,594.5999999940395,36.0,60.0,40.0,False,,347.60939535376554,[],"[683, 384]",ColorTask,87.0,21.0,,,HRV,HRV_0292,2022-11-30 21:00:03
,wl-rdm,138,407539,0.0-8.21-0.21,1.0,139.0,,,,,,,[],,,,,,56.4,0.0,u,0.0,True,1292.5999999940395,78.0,60.0,40.0,False,,395.12708875905753,[],"[683, 384]",ColorTask,88.0,22.0,,,HRV,HRV_0292,2022-11-30 21:00:03
,wl-rdm,139,410409,0.0-8.22-0.22,1.0,140.0,,,,,,,[],,,,,,56.4,1.0,i,1.0,True,1538.4000000059605,92.0,60.0,40.0,False,,263.16376367025066,[],"[683, 384]",ColorTask,89.0,23.0,,,HRV,HRV_0292,2022-11-30 21:00:03
,wl-rdm,140,412376,0.0-8.23-0.23,1.0,141.0,,,,,,,[],,,,,,87.9,1.0,i,1.0,True,579.4000000059605,35.0,60.0,40.0,False,,331.428243955751,[],"[683, 384]",ColorTask,90.0,24.0,,,HRV,HRV_0292,2022-11-30 21:00:03
,wl-rdm,141,415962,0.0-8.24-0.24,1.0,142.0,,,,,,,[],,,,,,53.2,0.0,u,0.0,True,2190.0000000298023,131.0,60.0,40.0,False,,311.6003267627259,[],"[683, 384]",ColorTask,91.0,25.0,,,HRV,HRV_0292,2022-11-30 21:00:03
,wl-rdm,142,417984,0.0-8.25-0.25,1.0,143.0,,,,,,,[],,,,,,56.4,1.0,i,1.0,True,724.7999999821186,44.0,60.0,40.0,False,,217.1559337006773,[],"[683, 384]",ColorTask,92.0,26.0,,,HRV,HRV_0292,2022-11-30 21:00:03
,wl-rdm,143,420134,0.0-8.26-0.26,1.0,144.0,,,,,,,[],,,,,,62.5,0.0,u,0.0,True,771.9000000059605,47.0,60.0,40.0,False,,295.25537821175675,[],"[683, 384]",ColorTask,93.0,27.0,,,HRV,HRV_0292,2022-11-30 21:00:03
,wl-rdm,144,422303,0.0-8.27-0.27,1.0,145.0,,,,,,,[],,,,,,73.6,1.0,i,1.0,True,787.6999999880791,48.0,60.0,40.0,False,,304.44899566209915,[],"[683, 384]",ColorTask,94.0,28.0,,,HRV,HRV_0292,2022-11-30 21:00:03
,wl-rdm,145,424421,0.0-8.28-0.28,1.0,146.0,,,,,,,[],,,,,,56.4,0.0,u,0.0,True,787.5999999940395,47.0,60.0,40.0,False,,264.11431679565237,[],"[683, 384]",ColorTask,95.0,29.0,,,HRV,HRV_0292,2022-11-30 21:00:03
,wl-rdm,146,426589,0.0-8.29-0.29,1.0,147.0,,,,,,,[],,,,,,87.9,0.0,u,0.0,True,893.5999999940395,54.0,60.0,40.0,False,,216.09829602024433,[],"[683, 384]",ColorTask,96.0,30.0,,,HRV,HRV_0292,2022-11-30 21:00:03
,wl-rdm,147,429041,0.0-8.30-0.30,1.0,148.0,,,,,,,[],,,,,,50.0,0.0,i,1.0,False,1036.5999999940395,62.0,60.0,40.0,False,,337.1389854170735,[],"[683, 384]",ColorTask,95.0,31.0,,,HRV,HRV_0292,2022-11-30 21:00:03
,wl-rdm,148,431293,0.0-8.31-0.31,1.0,149.0,,,,,,,[],,,,,,50.0,1.0,u,0.0,False,844.8000000119209,51.0,60.0,40.0,False,,349.212854527048,[],"[683, 384]",ColorTask,94.0,32.0,,,HRV,HRV_0292,2022-11-30 21:00:03
,wl-rdm,149,433381,0.0-8.32-0.32,1.0,150.0,,,,,,,[],,,,,,73.6,0.0,u,0.0,True,775.8999999761581,47.0,60.0,40.0,False,,234.6278914883861,[],"[683, 384]",ColorTask,95.0,33.0,,,HRV,HRV_0292,2022-11-30 21:00:03
,wl-rdm,150,435730,0.0-8.33-0.33,1.0,151.0,,,,,,,[],,,,,,56.4,0.0,u,0.0,True,1067.199999988079,64.0,60.0,40.0,False,,211.05978143328852,[],"[683, 384]",ColorTask,96.0,34.0,,,HRV,HRV_0292,2022-11-30 21:00:03
,wl-rdm,151,437633,0.0-8.34-0.34,1.0,152.0,,,,,,,[],,,,,,56.4,0.0,u,0.0,True,596.8000000119209,36.0,60.0,40.0,False,,232.8432264210747,[],"[683, 384]",ColorTask,97.0,35.0,,,HRV,HRV_0292,2022-11-30 21:00:03
,wl-rdm,152,439920,0.0-8.35-0.35,1.0,153.0,,,,,,,[],,,,,,62.5,1.0,i,1.0,True,901.8999999761581,54.0,60.0,40.0,False,,297.39678748807546,[],"[683, 384]",ColorTask,98.0,36.0,,,HRV,HRV_0292,2022-11-30 21:00:03
,wl-rdm,153,441987,0.0-8.36-0.36,1.0,154.0,,,,,,,[],,,,,,87.9,0.0,u,0.0,True,623.0,38.0,60.0,40.0,False,,351.5737245496355,[],"[683, 384]",ColorTask,99.0,37.0,,,HRV,HRV_0292,2022-11-30 21:00:03
,wl-rdm,154,444673,0.0-8.37-0.37,1.0,155.0,,,,,,,[],,,,,,53.2,0.0,u,0.0,True,1400.7000000178814,85.0,60.0,40.0,False,,203.5815213102097,[],"[683, 384]",ColorTask,100.0,38.0,,,HRV,HRV_0292,2022-11-30 21:00:03
,wl-rdm,155,447012,0.0-8.38-0.38,1.0,156.0,,,,,,,[],,,,,,73.6,1.0,i,1.0,True,1005.0999999940395,61.0,60.0,40.0,False,,251.94815766400865,[],"[683, 384]",ColorTask,101.0,39.0,,,HRV,HRV_0292,2022-11-30 21:00:03
,wl-rdm,156,449561,0.0-8.39-0.39,1.0,157.0,,,,,,,[],,,,,,50.0,0.0,i,1.0,False,1206.3999999761581,72.0,60.0,40.0,False,,280.4466214360601,[],"[683, 384]",ColorTask,100.0,40.0,,,HRV,HRV_0292,2022-11-30 21:00:03
,wl-rdm,157,451613,0.0-8.40-0.40,1.0,158.0,,,,,,,[],,,,,,87.9,0.0,u,0.0,True,605.5999999940395,37.0,60.0,40.0,False,,383.3370615578707,[],"[683, 384]",ColorTask,101.0,41.0,,,HRV,HRV_0292,2022-11-30 21:00:03
,wl-rdm,158,454378,0.0-8.41-0.41,1.0,159.0,,,,,,,[],,,,,,50.0,1.0,u,0.0,False,1263.5999999940395,75.0,60.0,40.0,False,,395.7318521778474,[],"[683, 384]",ColorTask,100.0,42.0,,,HRV,HRV_0292,2022-11-30 21:00:03
,wl-rdm,159,456333,0.0-8.42-0.42,1.0,160.0,,,,,,,[],,,,,,73.6,1.0,i,1.0,True,647.5,39.0,60.0,40.0,False,,219.19680794112966,[],"[683, 384]",ColorTask,101.0,43.0,,,HRV,HRV_0292,2022-11-30 21:00:03
,wl-rdm,160,458202,0.0-8.43-0.43,1.0,161.0,,,,,,,[],,,,,,87.9,1.0,i,1.0,True,546.9000000059605,33.0,60.0,40.0,False,,240.37651177420722,[],"[683, 384]",ColorTask,102.0,44.0,,,HRV,HRV_0292,2022-11-30 21:00:03
,wl-rdm,161,462139,0.0-8.44-0.44,1.0,162.0,,,,,,,[],,,,,,53.2,0.0,u,0.0,True,2479.699999988079,149.0,60.0,40.0,False,,387.6325761244922,[],"[683, 384]",ColorTask,103.0,45.0,,,HRV,HRV_0292,2022-11-30 21:00:03
,wl-rdm,162,465893,0.0-8.45-0.45,1.0,163.0,,,,,,,[],,,,,,50.0,1.0,i,1.0,True,2377.5999999940395,143.0,60.0,40.0,False,,301.16025128453583,[],"[683, 384]",ColorTask,104.0,46.0,,,HRV,HRV_0292,2022-11-30 21:00:03
,wl-rdm,163,468628,0.0-8.46-0.46,1.0,164.0,,,,,,,[],,,,,,56.4,0.0,u,0.0,True,1295.8000000417233,78.0,60.0,40.0,False,,367.07224910598876,[],"[683, 384]",ColorTask,105.0,47.0,,,HRV,HRV_0292,2022-11-30 21:00:03
,wl-rdm,164,470697,0.0-8.47-0.47,1.0,165.0,,,,,,,[],,,,,,87.9,0.0,u,0.0,True,605.1999999880791,37.0,60.0,40.0,False,,380.71280540280395,[],"[683, 384]",ColorTask,106.0,48.0,,,HRV,HRV_0292,2022-11-30 21:00:03
,wl-rdm,165,472930,0.0-8.48-0.48,1.0,166.0,,,,,,,[],,,,,,62.5,0.0,u,0.0,True,879.7999999821186,53.0,60.0,40.0,False,,296.6155721179507,[],"[683, 384]",ColorTask,107.0,49.0,,,HRV,HRV_0292,2022-11-30 21:00:03
,wl-rdm,166,474969,0.0-8.49-0.49,1.0,167.0,,,,,,,[],,,,,,62.5,1.0,i,1.0,True,739.5,45.0,60.0,40.0,False,,231.64765831331658,[],"[683, 384]",ColorTask,108.0,50.0,,,HRV,HRV_0292,2022-11-30 21:00:03
,wl-rdm,167,477168,0.0-8.50-0.50,1.0,168.0,,,,,,,[],,,,,,62.5,0.0,u,0.0,True,858.4000000059605,52.0,60.0,40.0,False,,250.47457219674143,[],"[683, 384]",ColorTask,109.0,51.0,,,HRV,HRV_0292,2022-11-30 21:00:03
,wl-rdm,168,479153,0.0-8.51-0.51,1.0,169.0,,,,,,,[],,,,,,73.6,0.0,u,0.0,True,679.3000000119209,38.0,60.0,40.0,False,,236.6534771004413,[],"[683, 384]",ColorTask,110.0,52.0,,,HRV,HRV_0292,2022-11-30 21:00:03
,wl-rdm,169,481575,0.0-8.52-0.52,1.0,170.0,,,,,,,[],,,,,,56.4,1.0,u,0.0,False,1087.9999999701977,66.0,60.0,40.0,False,,258.75472798510657,[],"[683, 384]",ColorTask,109.0,53.0,,,HRV,HRV_0292,2022-11-30 21:00:03
,wl-rdm,170,483676,0.0-8.53-0.53,1.0,171.0,,,,,,,[],,,,,,87.9,1.0,i,1.0,True,637.9999999701977,39.0,60.0,40.0,False,,387.83091013671935,[],"[683, 384]",ColorTask,110.0,54.0,,,HRV,HRV_0292,2022-11-30 21:00:03
,wl-rdm,171,486160,0.0-8.54-0.54,1.0,172.0,,,,,,,[],,,,,,53.2,0.0,u,0.0,True,1023.3000000119209,62.0,60.0,40.0,False,,394.2019924815703,[],"[683, 384]",ColorTask,111.0,55.0,,,HRV,HRV_0292,2022-11-30 21:00:03
,wl-rdm,172,488463,0.0-8.55-0.55,1.0,173.0,,,,,,,[],,,,,,62.5,0.0,u,0.0,True,989.7999999821186,60.0,60.0,40.0,False,,236.75739892408797,[],"[683, 384]",ColorTask,112.0,56.0,,,HRV,HRV_0292,2022-11-30 21:00:03
,wl-rdm,173,490448,0.0-8.56-0.56,1.0,174.0,,,,,,,[],,,,,,73.6,0.0,u,0.0,True,613.8000000119209,37.0,60.0,40.0,False,,290.80396820096007,[],"[683, 384]",ColorTask,113.0,57.0,,,HRV,HRV_0292,2022-11-30 21:00:03
,wl-rdm,174,493738,0.0-8.57-0.57,1.0,175.0,,,,,,,[],,,,,,62.5,1.0,i,1.0,True,1857.0999999940395,112.0,60.0,40.0,False,,354.3620275605739,[],"[683, 384]",ColorTask,114.0,58.0,,,HRV,HRV_0292,2022-11-30 21:00:03
,wl-rdm,175,495637,0.0-8.58-0.58,1.0,176.0,,,,,,,[],,,,,,87.9,1.0,i,1.0,True,528.7999999821186,32.0,60.0,40.0,False,,307.2828135018534,[],"[683, 384]",ColorTask,115.0,59.0,,,HRV,HRV_0292,2022-11-30 21:00:03
,wl-rdm,176,498239,0.0-8.59-0.59,1.0,177.0,,,,,,,[],,,,,,50.0,1.0,i,1.0,True,1173.0000000298023,70.0,60.0,40.0,False,,343.38978310181204,[],"[683, 384]",ColorTask,116.0,60.0,,,HRV,HRV_0292,2022-11-30 21:00:03
,wl-rdm,177,500274,0.0-8.60-0.60,1.0,178.0,,,,,,,[],,,,,,53.2,1.0,i,1.0,True,715.7000000178814,43.0,60.0,40.0,False,,267.0958760990146,[],"[683, 384]",ColorTask,117.0,61.0,,,HRV,HRV_0292,2022-11-30 21:00:03
,wl-rdm,178,502393,0.0-8.61-0.61,1.0,179.0,,,,,,,[],,,,,,73.6,1.0,i,1.0,True,676.3000000417233,39.0,60.0,40.0,False,,369.8348646522928,[],"[683, 384]",ColorTask,118.0,62.0,,,HRV,HRV_0292,2022-11-30 21:00:03
,wl-rdm,179,504393,0.0-8.62-0.62,1.0,180.0,,,,,,,[],,,,,,73.6,0.0,u,0.0,True,646.3000000119209,39.0,60.0,40.0,False,,294.82525362812703,[],"[683, 384]",ColorTask,119.0,63.0,,,HRV,HRV_0292,2022-11-30 21:00:03
,wl-rdm,180,506348,0.0-8.63-0.63,1.0,181.0,,,,,,,[],,,,,,62.5,1.0,i,1.0,True,645.3999999761581,39.0,60.0,40.0,False,,235.49614066654968,[],"[683, 384]",ColorTask,120.0,64.0,,,HRV,HRV_0292,2022-11-30 21:00:03
,wl-rdm,181,508368,0.0-8.64-0.64,1.0,182.0,,,,,,,[],,,,,,73.6,1.0,i,1.0,True,675.8000000417233,41.0,60.0,40.0,False,,271.148458903598,[],"[683, 384]",ColorTask,121.0,65.0,,,HRV,HRV_0292,2022-11-30 21:00:03
,wl-rdm,182,510165,0.0-8.65-0.65,1.0,183.0,,,,,,,[],,,,,,87.9,1.0,i,1.0,True,538.5999999940395,33.0,60.0,40.0,False,,201.9716063139804,[],"[683, 384]",ColorTask,122.0,66.0,,,HRV,HRV_0292,2022-11-30 21:00:03
,wl-rdm,183,512101,0.0-8.66-0.66,1.0,184.0,,,,,,,[],,,,,,87.9,1.0,i,1.0,True,561.1999999880791,33.0,60.0,40.0,False,,313.27778801778044,[],"[683, 384]",ColorTask,123.0,67.0,,,HRV,HRV_0292,2022-11-30 21:00:03
,wl-rdm,184,514585,0.0-8.67-0.67,1.0,185.0,,,,,,,[],,,,,,53.2,1.0,i,1.0,True,1053.7999999821186,63.0,60.0,40.0,False,,357.69476971927395,[],"[683, 384]",ColorTask,124.0,68.0,,,HRV,HRV_0292,2022-11-30 21:00:03
,wl-rdm,185,516953,0.0-8.68-0.68,1.0,186.0,,,,,,,[],,,,,,62.5,0.0,u,0.0,True,1041.5999999940395,63.0,60.0,40.0,False,,252.1881874206987,[],"[683, 384]",ColorTask,125.0,69.0,,,HRV,HRV_0292,2022-11-30 21:00:03
,wl-rdm,186,518957,0.0-8.69-0.69,1.0,187.0,,,,,,,[],,,,,,53.2,1.0,i,1.0,True,688.9000000357628,42.0,60.0,40.0,False,,233.637039777517,[],"[683, 384]",ColorTask,126.0,70.0,,,HRV,HRV_0292,2022-11-30 21:00:03
,wl-rdm,187,521490,0.0-8.70-0.70,1.0,188.0,,,,,,,[],,,,,,56.4,1.0,i,1.0,True,1074.0999999940395,64.0,60.0,40.0,False,,387.8134811682859,[],"[683, 384]",ColorTask,127.0,71.0,,,HRV,HRV_0292,2022-11-30 21:00:03
,wl-rdm,188,523759,0.0-8.71-0.71,1.0,189.0,,,,,,,[],,,,,,50.0,1.0,i,1.0,True,875.5999999940395,53.0,60.0,40.0,False,,327.9004126488027,[],"[683, 384]",ColorTask,128.0,72.0,,,HRV,HRV_0292,2022-11-30 21:00:03
,wl-rdm,189,526546,0.0-8.72-0.72,1.0,190.0,,,,,,,[],,,,,,53.2,0.0,i,1.0,False,1437.3000000417233,87.0,60.0,40.0,False,,250.3732949141294,[],"[683, 384]",ColorTask,127.0,73.0,,,HRV,HRV_0292,2022-11-30 21:00:03
,wl-rdm,190,529632,0.0-8.73-0.73,1.0,191.0,,,,,,,[],,,,,,53.2,1.0,i,1.0,True,1676.3999999761581,101.0,60.0,40.0,False,,343.0551603974692,[],"[683, 384]",ColorTask,128.0,74.0,,,HRV,HRV_0292,2022-11-30 21:00:03
,wl-rdm,191,531934,0.0-8.74-0.74,1.0,192.0,,,,,,,[],,,,,,56.4,1.0,i,1.0,True,996.0999999940395,60.0,60.0,40.0,False,,223.05279829609952,[],"[683, 384]",ColorTask,129.0,75.0,,,HRV,HRV_0292,2022-11-30 21:00:03
,wl-rdm,192,534319,0.0-8.75-0.75,1.0,193.0,,,,,,,[],,,,,,50.0,1.0,i,1.0,True,1081.300000011921,65.0,60.0,40.0,False,,239.37768112591482,[],"[683, 384]",ColorTask,130.0,76.0,,,HRV,HRV_0292,2022-11-30 21:00:03
,wl-rdm,193,536806,0.0-8.76-0.76,1.0,194.0,,,,,,,[],,,,,,50.0,0.0,i,1.0,False,1189.0999999940395,72.0,60.0,40.0,False,,233.43229234718885,[],"[683, 384]",ColorTask,129.0,77.0,,,HRV,HRV_0292,2022-11-30 21:00:03
,wl-rdm,194,538991,0.0-8.77-0.77,1.0,195.0,,,,,,,[],,,,,,73.6,1.0,i,1.0,True,825.5999999940395,50.0,60.0,40.0,False,,288.96864683747145,[],"[683, 384]",ColorTask,130.0,78.0,,,HRV,HRV_0292,2022-11-30 21:00:03
,wl-rdm,195,540977,0.0-8.78-0.78,1.0,196.0,,,,,,,[],,,,,,87.9,0.0,u,0.0,True,565.5999999642372,34.0,60.0,40.0,False,,348.6595820778374,[],"[683, 384]",ColorTask,131.0,79.0,,,HRV,HRV_0292,2022-11-30 21:00:03
,wl-rdm,196,542927,0.0-8.79-0.79,1.0,197.0,,,,,,,[],,,,,,73.6,1.0,i,1.0,True,654.0999999940395,40.0,60.0,40.0,False,,202.46601460304475,[],"[683, 384]",ColorTask,132.0,80.0,,,HRV,HRV_0292,2022-11-30 21:00:03
,wl-rdm,197,545832,0.0-8.80-0.80,1.0,198.0,,,,,,,[],,,,,,50.0,1.0,i,1.0,True,1587.2999999821186,95.0,60.0,40.0,False,,233.1090102967314,[],"[683, 384]",ColorTask,133.0,81.0,,,HRV,HRV_0292,2022-11-30 21:00:03
,wl-rdm,198,547681,0.0-8.81-0.81,1.0,199.0,,,,,,,[],,,,,,87.9,1.0,i,1.0,True,574.7000000178814,35.0,60.0,40.0,False,,204.11379357084078,[],"[683, 384]",ColorTask,134.0,82.0,,,HRV,HRV_0292,2022-11-30 21:00:03
,wl-rdm,199,550049,0.0-8.82-0.82,1.0,200.0,,,,,,,[],,,,,,50.0,1.0,u,0.0,False,992.3000000119209,59.0,60.0,40.0,False,,313.552930088342,[],"[683, 384]",ColorTask,133.0,83.0,,,HRV,HRV_0292,2022-11-30 21:00:03
,wl-rdm,200,552835,0.0-8.83-0.83,1.0,201.0,,,,,,,[],,,,,,56.4,1.0,i,1.0,True,1513.5,91.0,60.0,40.0,False,,214.58265941362188,[],"[683, 384]",ColorTask,134.0,84.0,,,HRV,HRV_0292,2022-11-30 21:00:03
,wl-rdm,201,555105,0.0-8.84-0.84,1.0,202.0,,,,,,,[],,,,,,62.5,1.0,i,1.0,True,858.5,51.0,60.0,40.0,False,,332.1164984218105,[],"[683, 384]",ColorTask,135.0,85.0,,,HRV,HRV_0292,2022-11-30 21:00:03
,wl-rdm,202,557008,0.0-8.85-0.85,1.0,203.0,,,,,,,[],,,,,,87.9,0.0,u,0.0,True,544.0999999940395,33.0,60.0,40.0,False,,287.44196118229405,[],"[683, 384]",ColorTask,136.0,86.0,,,HRV,HRV_0292,2022-11-30 21:00:03
,wl-rdm,203,559158,0.0-8.86-0.86,1.0,204.0,,,,,,,[],,,,,,50.0,0.0,i,1.0,False,847.4999999701977,50.0,60.0,40.0,False,,249.5684728455257,[],"[683, 384]",ColorTask,135.0,87.0,,,HRV,HRV_0292,2022-11-30 21:00:03
,wl-rdm,204,561828,0.0-8.87-0.87,1.0,205.0,,,,,,,[],,,,,,56.4,0.0,u,0.0,True,1214.8999999761581,73.0,60.0,40.0,False,,395.65219248720507,[],"[683, 384]",ColorTask,136.0,88.0,,,HRV,HRV_0292,2022-11-30 21:00:03
,wl-rdm,205,564112,0.0-8.88-0.88,1.0,206.0,,,,,,,[],,,,,,50.0,0.0,i,1.0,False,980.8000000417233,59.0,60.0,40.0,False,,223.5464964613728,[],"[683, 384]",ColorTask,135.0,89.0,,,HRV,HRV_0292,2022-11-30 21:00:03
,wl-rdm,206,566350,0.0-8.89-0.89,1.0,207.0,,,,,,,[],,,,,,53.2,1.0,i,1.0,True,778.6999999880791,47.0,60.0,40.0,False,,383.6601815777742,[],"[683, 384]",ColorTask,136.0,90.0,,,HRV,HRV_0292,2022-11-30 21:00:03
,wl-rdm,207,568434,0.0-8.90-0.90,1.0,208.0,,,,,,,[],,,,,,56.4,0.0,u,0.0,True,785.8000000417233,48.0,60.0,40.0,False,,230.30962043295057,[],"[683, 384]",ColorTask,137.0,91.0,,,HRV,HRV_0292,2022-11-30 21:00:03
,wl-rdm,208,570853,0.0-8.91-0.91,1.0,209.0,,,,,,,[],,,,,,62.5,1.0,i,1.0,True,1068.4000000059605,64.0,60.0,40.0,False,,283.73780572897874,[],"[683, 384]",ColorTask,138.0,92.0,,,HRV,HRV_0292,2022-11-30 21:00:03
,wl-rdm,209,574355,0.0-8.92-0.92,1.0,210.0,,,,,,,[],,,,,,62.5,1.0,i,1.0,True,2202.5999999940395,132.0,60.0,40.0,False,,226.05053510134974,[],"[683, 384]",ColorTask,139.0,93.0,,,HRV,HRV_0292,2022-11-30 21:00:03
,wl-rdm,210,576457,0.0-8.93-0.93,1.0,211.0,,,,,,,[],,,,,,62.5,0.0,u,0.0,True,788.7000000178814,48.0,60.0,40.0,False,,247.67572916178509,[],"[683, 384]",ColorTask,140.0,94.0,,,HRV,HRV_0292,2022-11-30 21:00:03
,wl-rdm,211,580010,0.0-8.94-0.94,1.0,212.0,,,,,,,[],,,,,,53.2,1.0,i,1.0,True,2209.800000011921,133.0,60.0,40.0,False,,253.43157072398563,[],"[683, 384]",ColorTask,141.0,95.0,,,HRV,HRV_0292,2022-11-30 21:00:03
,wl-rdm,212,582013,0.0-8.95-0.95,1.0,213.0,,,,,,,[],,,,,,87.9,1.0,i,1.0,True,646.3000000119209,39.0,60.0,40.0,False,,290.93586836075195,[],"[683, 384]",ColorTask,142.0,96.0,,,HRV,HRV_0292,2022-11-30 21:00:03
,wl-rdm,213,584129,0.0-8.96-0.96,1.0,214.0,,,,,,,[],,,,,,73.6,0.0,u,0.0,True,744.3000000119209,45.0,60.0,40.0,False,,285.0619047087059,[],"[683, 384]",ColorTask,143.0,97.0,,,HRV,HRV_0292,2022-11-30 21:00:03
,wl-rdm,214,586565,0.0-8.97-0.97,1.0,215.0,,,,,,,[],,,,,,53.2,0.0,u,0.0,True,1105.0,66.0,60.0,40.0,False,,255.25833272792792,[],"[683, 384]",ColorTask,144.0,98.0,,,HRV,HRV_0292,2022-11-30 21:00:03
,wl-rdm,215,589135,0.0-8.98-0.98,1.0,216.0,,,,,,,[],,,,,,50.0,0.0,u,0.0,True,1228.9000000059605,74.0,60.0,40.0,False,,275.92443039939747,[],"[683, 384]",ColorTask,145.0,99.0,,,HRV,HRV_0292,2022-11-30 21:00:03
,wl-rdm,216,591602,0.0-8.99-0.99,1.0,217.0,,,,,,,[],,,,,,53.2,1.0,i,1.0,True,1085.2999999821186,64.0,60.0,40.0,False,,316.8312007409065,[],"[683, 384]",ColorTask,146.0,100.0,,,HRV,HRV_0292,2022-11-30 21:00:03
,wl-rdm,217,593806,0.0-8.100-0.100,1.0,218.0,,,,,,,[],,,,,,73.6,0.0,u,0.0,True,755.5000000298023,46.0,60.0,40.0,False,,365.1420133824644,[],"[683, 384]",ColorTask,147.0,101.0,,,HRV,HRV_0292,2022-11-30 21:00:03
,wl-rdm,218,596007,0.0-8.101-0.101,1.0,219.0,,,,,,,[],,,,,,62.5,1.0,i,1.0,True,796.7000000178814,48.0,60.0,40.0,False,,331.5727008874803,[],"[683, 384]",ColorTask,148.0,102.0,,,HRV,HRV_0292,2022-11-30 21:00:03
,wl-rdm,219,597993,0.0-8.102-0.102,1.0,220.0,,,,,,,[],,,,,,87.9,0.0,u,0.0,True,604.1000000238419,37.0,60.0,40.0,False,,322.20714382572385,[],"[683, 384]",ColorTask,149.0,103.0,,,HRV,HRV_0292,2022-11-30 21:00:03
,wl-rdm,220,600063,0.0-8.103-0.103,1.0,221.0,,,,,,,[],,,,,,53.2,1.0,i,1.0,True,659.9000000059605,40.0,60.0,40.0,False,,336.8114281213968,[],"[683, 384]",ColorTask,150.0,104.0,,,HRV,HRV_0292,2022-11-30 21:00:03
,wl-rdm,221,602094,0.0-8.104-0.104,1.0,222.0,,,,,,,[],,,,,,62.5,0.0,u,0.0,True,701.8999999761581,43.0,60.0,40.0,False,,247.76072922986404,[],"[683, 384]",ColorTask,151.0,105.0,,,HRV,HRV_0292,2022-11-30 21:00:03
,wl-rdm,222,604131,0.0-8.105-0.105,1.0,223.0,,,,,,,[],,,,,,73.6,0.0,u,0.0,True,650.4000000059605,39.0,60.0,40.0,False,,312.19466561688535,[],"[683, 384]",ColorTask,152.0,106.0,,,HRV,HRV_0292,2022-11-30 21:00:03
,wl-rdm,223,605949,0.0-8.106-0.106,1.0,224.0,,,,,,,[],,,,,,87.9,0.0,u,0.0,True,545.5999999940395,33.0,60.0,40.0,False,,210.01481493610095,[],"[683, 384]",ColorTask,153.0,107.0,,,HRV,HRV_0292,2022-11-30 21:00:03
,wl-rdm,224,607800,0.0-8.107-0.107,1.0,225.0,,,,,,,[],,,,,,53.2,0.0,u,0.0,True,540.7999999821186,32.0,60.0,40.0,False,,219.2937872782527,[],"[683, 384]",ColorTask,154.0,108.0,,,HRV,HRV_0292,2022-11-30 21:00:03
,wl-html-button-response,225,610961,0.0-9.0-0.0,,,,,,,,,,3150.5,,0,,,,,,,,,,,,,,,,,,,,<h3>End of this session. Thank you!</h3><br>,['Close window'],HRV,HRV_0292,2022-11-30 21:00:03
