success,trial_type,trial_index,time_elapsed,internal_node_id,Block,TrialNumber,TrialTime,trialTimeDiff,FPS_avg,FPS_med,FPS_mode,TrialDur,winResizeTime,rt,block,button_pressed,MotCoh,MotDir,ColCoh,Color,ChoiceKey,Choice,Accuracy,RT,nFrames,FPS,PPD,missTrial,missTrialMsg,onsetDelay,fullScreenExitTime,canvCenter,TrialType,Score,BlockTrial,stimulus,button_labels,exp,subjectId,date
True,fullscreen,0,2886,0.0-0.0,0.0,1.0,,,,,,,,,,,,,,,,,,,,,,,,,,,,,,,,HRV,HRV_0077,2022-11-30 18:00:12
,wl-check-fps,1,7903,0.0-1.0,0.0,2.0,"[3467.9, 3474.3, 3490.2, 3507.4, 3523.6, 3540.7, 3557, 3579.1, 3609.1, 3625.9, 3642.6, 3659.5, 3675.3, 3693.8, 3709.3, 3725.4, 3741, 3757.8, 3776.4, 3791.1, 3807.8, 3824.5, 3843.2, 3858.2, 3877, 3891.6, 3907.9, 3924.6, 3941.1, 3959, 3974.6, 3992.2, 4009.7, 4026.5, 4041.1, 4057.9, 4074.6, 4093.9, 4109.8, 4124.9, 4141.7, 4159.8, 4174.8, 4191.4, 4207.9, 4224.9, 4241.4, 4259, 4276.9, 4291.5, 4308.8, 4325.2, 4342.6, 4359.4, 4376.3, 4393.6, 4408.3, 4425.2, 4441.8, 4458.5, 4475.2, 4491.9, 4508.5, 4525.2, 4541.8, 4558.4, 4575.2, 4591.8, 4608.7, 4628.1, 4643.1, 4658.9, 4676.6, 4692.1, 4709.4, 4725.9, 4742.3, 4758.8, 4775.5, 4792, 4808.6, 4826.8, 4842.4, 4860.3, 4876.7, 4892.6, 4909.8, 4928.7, 4942.7, 4959.1, 4975.5, 4992.4, 5008.9, 5026.4, 5043.6, 5059, 5075.9, 5092.2, 5110.4, 5126.8, 5144.5, 5159.2, 5178.1, 5193.6, 5209.1, 5226.4, 5242.4, 5259.1, 5277.8, 5292.6, 5309.7, 5327.2, 5342.6, 5359.6, 5377.3, 5392.5, 5409.2, 5426.6, 5442.7, 5459.2, 5476.5, 5492.8, 5509.7, 5527.1, 5544.7, 5562.5, 5576.2, 5593.1, 5609.5, 5627, 5644.8, 5659.7, 5678.2, 5692.8, 5709.6, 5726.8, 5743.5, 5762, 5777.5, 5795.5, 5811.8, 5828.6, 5846.5, 5862.9, 5877.9, 5895.7, 5911.8, 5929.5, 5945.5, 5963.7, 5978.2, 5993, 6010, 6027.5, 6043, 6060, 6077, 6093.1, 6111.6, 6126.9, 6143.3, 6160.2, 6176.6, 6193.3, 6210, 6226.9, 6243.3, 6260, 6278.6, 6293.5, 6310.2, 6326.9, 6343.5, 6362, 6376.8, 6393.4, 6410.7, 6427, 6444, 6460.3, 6477, 6493.7, 6510.5, 6527.2, 6543.8, 6560.3, 6577, 6593.9, 6610.7, 6627.5, 6644, 6660.9, 6677.6, 6695.1, 6712.5, 6727.4, 6744.6, 6762.5, 6777.2, 6794.1, 6810.7, 6827.7, 6844.8, 6861.5, 6878.2, 6895.1, 6912.9, 6932, 6946.6, 6964.2, 6981.4, 6997.6, 7012.2, 7031.8, 7045.2, 7060.9, 7077.8, 7094.6, 7112.2, 7131, 7148.7, 7164.6, 7180.3, 7197.5, 7214.8, 7229.7, 7249.9, 7266.4, 7282.7, 7299.1, 7312.5, 7330.1, 7347.3, 7363.7, 7380.8, 7398, 7415.4, 7432.8, 7447.9, 7467, 7480.8, 7497.5, 7514.1, 7530.9, 7549.1, 7564.5, 7581.6, 7598, 7614.2, 7633, 7649.3, 7663.3, 7681.5, 7698.2, 7716.7, 7730.6, 7748.4, 7766.1, 7780.1, 7797.1, 7814.5, 7830.9, 7848, 7863.1, 7879.8, 7897, 7912.6, 7929.7, 7948.3, 7962.6, 7982.8, 7997.2, 8015.5, 8030.7, 8049, 8063.6, 8080, 8100.3, 8114.5, 8130.6, 8146.5, 8161.9, 8178.7, 8195.3, 8212.5, 8228.8, 8247.2, 8264.1, 8279.1, 8295.4, 8312.2, 8328.8, 8345.9, 8362.2, 8378.9, 8395.7, 8412.3, 8429, 8446.1, 8466.5]","[1.9, 6.4, 15.9, 17.2, 16.2, 17.1, 16.3, 22.1, 30, 16.8, 16.7, 16.9, 15.8, 18.5, 15.5, 16.1, 15.6, 16.8, 18.6, 14.7, 16.7, 16.7, 18.7, 15, 18.8, 14.6, 16.3, 16.7, 16.5, 17.9, 15.6, 17.6, 17.5, 16.8, 14.6, 16.8, 16.7, 19.3, 15.9, 15.1, 16.8, 18.1, 15, 16.6, 16.5, 17, 16.5, 17.6, 17.9, 14.6, 17.3, 16.4, 17.4, 16.8, 16.9, 17.3, 14.7, 16.9, 16.6, 16.7, 16.7, 16.7, 16.6, 16.7, 16.6, 16.6, 16.8, 16.6, 16.9, 19.4, 15, 15.8, 17.7, 15.5, 17.3, 16.5, 16.4, 16.5, 16.7, 16.5, 16.6, 18.2, 15.6, 17.9, 16.4, 15.9, 17.2, 18.9, 14, 16.4, 16.4, 16.9, 16.5, 17.5, 17.2, 15.4, 16.9, 16.3, 18.2, 16.4, 17.7, 14.7, 18.9, 15.5, 15.5, 17.3, 16, 16.7, 18.7, 14.8, 17.1, 17.5, 15.4, 17, 17.7, 15.2, 16.7, 17.4, 16.1, 16.5, 17.3, 16.3, 16.9, 17.4, 17.6, 17.8, 13.7, 16.9, 16.4, 17.5, 17.8, 14.9, 18.5, 14.6, 16.8, 17.2, 16.7, 18.5, 15.5, 18, 16.3, 16.8, 17.9, 16.4, 15, 17.8, 16.1, 17.7, 16, 18.2, 14.5, 14.8, 17, 17.5, 15.5, 17, 17, 16.1, 18.5, 15.3, 16.4, 16.9, 16.4, 16.7, 16.7, 16.9, 16.4, 16.7, 18.6, 14.9, 16.7, 16.7, 16.6, 18.5, 14.8, 16.6, 17.3, 16.3, 17, 16.3, 16.7, 16.7, 16.8, 16.7, 16.6, 16.5, 16.7, 16.9, 16.8, 16.8, 16.5, 16.9, 16.7, 17.5, 17.4, 14.9, 17.2, 17.9, 14.7, 16.9, 16.6, 17, 17.1, 16.7, 16.7, 16.9, 17.8, 19.1, 14.6, 17.6, 17.2, 16.2, 14.6, 19.6, 13.4, 15.7, 16.9, 16.8, 17.6, 18.8, 17.7, 15.9, 15.7, 17.2, 17.3, 14.9, 20.2, 16.5, 16.3, 16.4, 13.4, 17.6, 17.2, 16.4, 17.1, 17.2, 17.4, 17.4, 15.1, 19.1, 13.8, 16.7, 16.6, 16.8, 18.2, 15.4, 17.1, 16.4, 16.2, 18.8, 16.3, 14, 18.2, 16.7, 18.5, 13.9, 17.8, 17.7, 14, 17, 17.4, 16.4, 17.1, 15.1, 16.7, 17.2, 15.6, 17.1, 18.6, 14.3, 20.2, 14.4, 18.3, 15.2, 18.3, 14.6, 16.4, 20.3, 14.2, 16.1, 15.9, 15.4, 16.8, 16.6, 17.2, 16.3, 18.4, 16.9, 15, 16.3, 16.8, 16.6, 17.1, 16.3, 16.7, 16.8, 16.6, 16.7, 17.1, 20.4]",60.0,61.0,60.0,5013.1,[],,,,,,,,,,,,,,,,,,,,,,,,,HRV,HRV_0077,2022-11-30 18:00:12
,wl-html-keyboard-response,2,16973,0.0-2.0-0.0,0.0,3.0,,,,,,,,7063.799999952316,0.0,0,,,,,,,,,,,,,,,,,,,,,,HRV,HRV_0077,2022-11-30 18:00:12
,wl-rdm,3,23719,0.0-3.0-0.0,0.0,4.0,,,,,,,[],,,,0.0,0.0,87.9,0.0,u,0.0,True,1178.0,71.0,60.0,40.0,False,,3000.0,[],"[960, 540]",ColorTask_Demo,,,,,HRV,HRV_0077,2022-11-30 18:00:12
,wl-rdm,4,28624,0.0-3.0-1.0,0.0,5.0,,,,,,,[],,,,0.0,0.0,87.9,1.0,i,1.0,True,807.3000001907349,49.0,60.0,40.0,False,,2000.0,[],"[960, 540]",ColorTask_Demo,,,,,HRV,HRV_0077,2022-11-30 18:00:12
,wl-html-keyboard-response,5,34005,0.0-3.0-2.0,0.0,6.0,,,,,,,,3372.2000000476837,0.0,1,,,,,,,,,,,,,,,,,,,,,,HRV,HRV_0077,2022-11-30 18:00:12
,wl-html-keyboard-response,6,41781,0.0-4.0-0.0,0.0,7.0,,,,,,,,5771.399999856949,0.0,0,,,,,,,,,,,,,,,,,,,,,,HRV,HRV_0077,2022-11-30 18:00:12
,wl-html-keyboard-response,7,57332,0.0-5.0-0.0,0.0,8.0,,,,,,,,13541.299999952316,0.0,0,,,,,,,,,,,,,,,,,,,,,,HRV,HRV_0077,2022-11-30 18:00:12
,wl-rdm,8,59722,0.0-6.0-0.0,0.0,9.0,,,,,,,[],,,,,,62.5,1.0,i,1.0,True,983.7999999523163,59.0,60.0,40.0,False,,323.45185387762797,[],"[960, 540]",ColorTask,1.0,1.0,,,HRV,HRV_0077,2022-11-30 18:00:12
,wl-rdm,9,62121,0.0-6.1-0.1,0.0,10.0,,,,,,,[],,,,,,56.4,1.0,i,1.0,True,1076.3999998569489,65.0,60.0,40.0,False,,245.83050522237988,[],"[960, 540]",ColorTask,2.0,2.0,,,HRV,HRV_0077,2022-11-30 18:00:12
,wl-rdm,10,64656,0.0-6.2-0.2,0.0,11.0,,,,,,,[],,,,,,56.4,0.0,u,0.0,True,1116.0,67.0,60.0,40.0,False,,364.5254875505608,[],"[960, 540]",ColorTask,3.0,3.0,,,HRV,HRV_0077,2022-11-30 18:00:12
,wl-rdm,11,66726,0.0-6.3-0.3,0.0,12.0,,,,,,,[],,,,,,73.6,1.0,i,1.0,True,722.0,44.0,60.0,40.0,False,,270.6285912731211,[],"[960, 540]",ColorTask,4.0,4.0,,,HRV,HRV_0077,2022-11-30 18:00:12
,wl-rdm,12,69129,0.0-6.4-0.4,0.0,13.0,,,,,,,[],,,,,,53.2,1.0,i,1.0,True,1108.2000000476837,67.0,60.0,40.0,False,,215.2467649825718,[],"[960, 540]",ColorTask,5.0,5.0,,,HRV,HRV_0077,2022-11-30 18:00:12
,wl-rdm,13,71364,0.0-6.5-0.5,0.0,14.0,,,,,,,[],,,,,,62.5,0.0,u,0.0,True,934.4000000953674,57.0,60.0,40.0,False,,230.26443964809476,[],"[960, 540]",ColorTask,6.0,6.0,,,HRV,HRV_0077,2022-11-30 18:00:12
,wl-rdm,14,73582,0.0-6.6-0.6,0.0,15.0,,,,,,,[],,,,,,62.5,1.0,i,1.0,True,838.2000000476837,51.0,60.0,40.0,False,,303.7737415749192,[],"[960, 540]",ColorTask,7.0,7.0,,,HRV,HRV_0077,2022-11-30 18:00:12
,wl-rdm,15,75884,0.0-6.7-0.7,0.0,16.0,,,,,,,[],,,,,,62.5,0.0,u,0.0,True,943.4999997615814,57.0,60.0,40.0,False,,298.06520607527125,[],"[960, 540]",ColorTask,8.0,8.0,,,HRV,HRV_0077,2022-11-30 18:00:12
,wl-rdm,16,78220,0.0-6.8-0.8,0.0,17.0,,,,,,,[],,,,,,56.4,0.0,u,0.0,True,894.9000000953674,54.0,60.0,40.0,False,,375.0615737175922,[],"[960, 540]",ColorTask,9.0,9.0,,,HRV,HRV_0077,2022-11-30 18:00:12
,wl-rdm,17,80690,0.0-6.9-0.9,0.0,18.0,,,,,,,[],,,,,,56.4,0.0,u,0.0,True,1182.2000000476837,71.0,60.0,40.0,False,,228.23003561674517,[],"[960, 540]",ColorTask,10.0,10.0,,,HRV,HRV_0077,2022-11-30 18:00:12
,wl-rdm,18,82877,0.0-6.10-0.10,0.0,19.0,,,,,,,[],,,,,,73.6,0.0,u,0.0,True,794.5,47.0,60.0,40.0,False,,301.883548900443,[],"[960, 540]",ColorTask,11.0,11.0,,,HRV,HRV_0077,2022-11-30 18:00:12
,wl-rdm,19,84979,0.0-6.11-0.11,0.0,20.0,,,,,,,[],,,,,,53.2,1.0,i,1.0,True,749.6999998092651,45.0,60.0,40.0,False,,269.1124447533773,[],"[960, 540]",ColorTask,12.0,12.0,,,HRV,HRV_0077,2022-11-30 18:00:12
,wl-rdm,20,87264,0.0-6.12-0.12,0.0,21.0,,,,,,,[],,,,,,53.2,0.0,u,0.0,True,965.5999999046326,58.0,60.0,40.0,False,,252.11713172126056,[],"[960, 540]",ColorTask,13.0,13.0,,,HRV,HRV_0077,2022-11-30 18:00:12
,wl-rdm,21,89433,0.0-6.13-0.13,0.0,22.0,,,,,,,[],,,,,,50.0,0.0,i,1.0,False,765.3000001907349,46.0,60.0,40.0,False,,345.7297834646032,[],"[960, 540]",ColorTask,12.0,14.0,,,HRV,HRV_0077,2022-11-30 18:00:12
,wl-rdm,22,91568,0.0-6.14-0.14,0.0,23.0,,,,,,,[],,,,,,73.6,0.0,u,0.0,True,777.4000000953674,47.0,60.0,40.0,False,,266.394810221799,[],"[960, 540]",ColorTask,13.0,15.0,,,HRV,HRV_0077,2022-11-30 18:00:12
,wl-rdm,23,93703,0.0-6.15-0.15,0.0,24.0,,,,,,,[],,,,,,56.4,1.0,i,1.0,True,705.1000001430511,42.0,60.0,40.0,False,,359.9862276160952,[],"[960, 540]",ColorTask,14.0,16.0,,,HRV,HRV_0077,2022-11-30 18:00:12
,wl-rdm,24,95973,0.0-6.16-0.16,0.0,25.0,,,,,,,[],,,,,,62.5,1.0,i,1.0,True,807.4000000953674,49.0,60.0,40.0,False,,350.88076217001833,[],"[960, 540]",ColorTask,15.0,17.0,,,HRV,HRV_0077,2022-11-30 18:00:12
,wl-rdm,25,98042,0.0-6.17-0.17,0.0,26.0,,,,,,,[],,,,,,73.6,1.0,i,1.0,True,799.7999999523163,48.0,60.0,40.0,False,,200.3111539847069,[],"[960, 540]",ColorTask,16.0,18.0,,,HRV,HRV_0077,2022-11-30 18:00:12
,wl-rdm,26,100079,0.0-6.18-0.18,0.0,27.0,,,,,,,[],,,,,,87.9,1.0,i,1.0,True,652.5,40.0,60.0,40.0,False,,287.9564835520228,[],"[960, 540]",ColorTask,17.0,19.0,,,HRV,HRV_0077,2022-11-30 18:00:12
,wl-rdm,27,102331,0.0-6.19-0.19,0.0,28.0,,,,,,,[],,,,,,62.5,0.0,u,0.0,True,965.0999999046326,58.0,60.0,40.0,False,,224.3887985171622,[],"[960, 540]",ColorTask,18.0,20.0,,,HRV,HRV_0077,2022-11-30 18:00:12
,wl-rdm,28,104280,0.0-6.20-0.20,0.0,29.0,,,,,,,[],,,,,,87.9,1.0,i,1.0,True,649.0999999046326,39.0,60.0,40.0,False,,224.50569077765883,[],"[960, 540]",ColorTask,19.0,21.0,,,HRV,HRV_0077,2022-11-30 18:00:12
,wl-rdm,29,106616,0.0-6.21-0.21,0.0,30.0,,,,,,,[],,,,,,53.2,0.0,i,1.0,False,938.5,56.0,60.0,40.0,False,,336.6964638166892,[],"[960, 540]",ColorTask,18.0,22.0,,,HRV,HRV_0077,2022-11-30 18:00:12
,wl-rdm,30,108836,0.0-6.22-0.22,0.0,31.0,,,,,,,[],,,,,,50.0,1.0,u,0.0,False,915.1999998092651,55.0,60.0,40.0,False,,224.53540390326344,[],"[960, 540]",ColorTask,17.0,23.0,,,HRV,HRV_0077,2022-11-30 18:00:12
,wl-rdm,31,111438,0.0-6.23-0.23,0.0,32.0,,,,,,,[],,,,,,56.4,0.0,i,1.0,False,1329.4000000953674,80.0,60.0,40.0,False,,216.16674007974794,[],"[960, 540]",ColorTask,16.0,24.0,,,HRV,HRV_0077,2022-11-30 18:00:12
,wl-rdm,32,113697,0.0-6.24-0.24,0.0,33.0,,,,,,,[],,,,,,62.5,1.0,i,1.0,True,923.2000000476837,56.0,60.0,40.0,False,,250.44133046115445,[],"[960, 540]",ColorTask,17.0,25.0,,,HRV,HRV_0077,2022-11-30 18:00:12
,wl-rdm,33,115892,0.0-6.25-0.25,0.0,34.0,,,,,,,[],,,,,,56.4,1.0,i,1.0,True,858.4999997615814,52.0,60.0,40.0,False,,272.49377483616155,[],"[960, 540]",ColorTask,18.0,26.0,,,HRV,HRV_0077,2022-11-30 18:00:12
,wl-rdm,34,117994,0.0-6.26-0.26,0.0,35.0,,,,,,,[],,,,,,73.6,1.0,i,1.0,True,783.1000001430511,47.0,60.0,40.0,False,,261.8070425283475,[],"[960, 540]",ColorTask,19.0,27.0,,,HRV,HRV_0077,2022-11-30 18:00:12
,wl-rdm,35,120432,0.0-6.27-0.27,0.0,36.0,,,,,,,[],,,,,,62.5,0.0,u,0.0,True,1044.1000001430511,63.0,60.0,40.0,False,,305.66230915420306,[],"[960, 540]",ColorTask,20.0,28.0,,,HRV,HRV_0077,2022-11-30 18:00:12
,wl-rdm,36,122481,0.0-6.28-0.28,0.0,37.0,,,,,,,[],,,,,,87.9,0.0,u,0.0,True,768.0999999046326,46.0,60.0,40.0,False,,211.57201343550295,[],"[960, 540]",ColorTask,21.0,29.0,,,HRV,HRV_0077,2022-11-30 18:00:12
,wl-rdm,37,125284,0.0-6.29-0.29,0.0,38.0,,,,,,,[],,,,,,50.0,1.0,i,1.0,True,1511.1000001430511,91.0,60.0,40.0,False,,222.08221566409142,[],"[960, 540]",ColorTask,22.0,30.0,,,HRV,HRV_0077,2022-11-30 18:00:12
,wl-rdm,38,127273,0.0-6.30-0.30,0.0,39.0,,,,,,,[],,,,,,87.9,1.0,i,1.0,True,650.7999999523163,39.0,60.0,40.0,False,,280.8546591254371,[],"[960, 540]",ColorTask,23.0,31.0,,,HRV,HRV_0077,2022-11-30 18:00:12
,wl-rdm,39,129489,0.0-6.31-0.31,0.0,40.0,,,,,,,[],,,,,,50.0,1.0,i,1.0,True,859.7999997138977,51.0,60.0,40.0,False,,283.2685599068318,[],"[960, 540]",ColorTask,24.0,32.0,,,HRV,HRV_0077,2022-11-30 18:00:12
,wl-rdm,40,132108,0.0-6.32-0.32,0.0,41.0,,,,,,,[],,,,,,50.0,0.0,i,1.0,False,1182.2999999523163,71.0,60.0,40.0,False,,366.60795658607685,[],"[960, 540]",ColorTask,23.0,33.0,,,HRV,HRV_0077,2022-11-30 18:00:12
,wl-rdm,41,134097,0.0-6.33-0.33,0.0,42.0,,,,,,,[],,,,,,87.9,0.0,u,0.0,True,659.2999999523163,40.0,60.0,40.0,False,,253.37956821029468,[],"[960, 540]",ColorTask,24.0,34.0,,,HRV,HRV_0077,2022-11-30 18:00:12
,wl-rdm,42,136280,0.0-6.34-0.34,0.0,43.0,,,,,,,[],,,,,,50.0,1.0,i,1.0,True,702.8000001907349,42.0,60.0,40.0,False,,383.9371839545245,[],"[960, 540]",ColorTask,25.0,35.0,,,HRV,HRV_0077,2022-11-30 18:00:12
,wl-rdm,43,138766,0.0-6.35-0.35,0.0,44.0,,,,,,,[],,,,,,56.4,0.0,u,0.0,True,1154.7999999523163,70.0,60.0,40.0,False,,251.8484160939633,[],"[960, 540]",ColorTask,26.0,36.0,,,HRV,HRV_0077,2022-11-30 18:00:12
,wl-rdm,44,140984,0.0-6.36-0.36,0.0,45.0,,,,,,,[],,,,,,73.6,0.0,u,0.0,True,884.0,53.0,60.0,40.0,False,,257.38776245086194,[],"[960, 540]",ColorTask,27.0,37.0,,,HRV,HRV_0077,2022-11-30 18:00:12
,wl-rdm,45,143621,0.0-6.37-0.37,0.0,46.0,,,,,,,[],,,,,,53.2,0.0,u,0.0,True,1278.9000000953674,77.0,60.0,40.0,False,,290.06672848658536,[],"[960, 540]",ColorTask,28.0,38.0,,,HRV,HRV_0077,2022-11-30 18:00:12
,wl-rdm,46,146206,0.0-6.38-0.38,0.0,47.0,,,,,,,[],,,,,,56.4,0.0,u,0.0,True,1272.2999999523163,77.0,60.0,40.0,False,,242.00166042857347,[],"[960, 540]",ColorTask,29.0,39.0,,,HRV,HRV_0077,2022-11-30 18:00:12
,wl-rdm,47,148776,0.0-6.39-0.39,0.0,48.0,,,,,,,[],,,,,,56.4,1.0,i,1.0,True,1262.2000000476837,76.0,60.0,40.0,False,,253.2754281319489,[],"[960, 540]",ColorTask,30.0,40.0,,,HRV,HRV_0077,2022-11-30 18:00:12
,wl-rdm,48,150993,0.0-6.40-0.40,0.0,49.0,,,,,,,[],,,,,,73.6,1.0,i,1.0,True,789.2000000476837,47.0,60.0,40.0,False,,357.50664695383654,[],"[960, 540]",ColorTask,31.0,41.0,,,HRV,HRV_0077,2022-11-30 18:00:12
,wl-rdm,49,152961,0.0-6.41-0.41,0.0,50.0,,,,,,,[],,,,,,53.2,1.0,i,1.0,True,690.5,42.0,60.0,40.0,False,,212.96027479317294,[],"[960, 540]",ColorTask,32.0,42.0,,,HRV,HRV_0077,2022-11-30 18:00:12
,wl-rdm,50,155298,0.0-6.42-0.42,0.0,51.0,,,,,,,[],,,,,,53.2,0.0,i,1.0,False,971.9000000953674,59.0,60.0,40.0,False,,294.0392535685665,[],"[960, 540]",ColorTask,31.0,43.0,,,HRV,HRV_0077,2022-11-30 18:00:12
,wl-rdm,51,157404,0.0-6.43-0.43,0.0,52.0,,,,,,,[],,,,,,87.9,0.0,u,0.0,True,719.0,43.0,60.0,40.0,False,,318.6993242709835,[],"[960, 540]",ColorTask,32.0,44.0,,,HRV,HRV_0077,2022-11-30 18:00:12
,wl-rdm,52,159552,0.0-6.44-0.44,0.0,53.0,,,,,,,[],,,,,,73.6,0.0,u,0.0,True,809.6000001430511,49.0,60.0,40.0,False,,227.25156920634095,[],"[960, 540]",ColorTask,33.0,45.0,,,HRV,HRV_0077,2022-11-30 18:00:12
,wl-rdm,53,161756,0.0-6.45-0.45,0.0,54.0,,,,,,,[],,,,,,62.5,1.0,i,1.0,True,848.8999998569489,51.0,60.0,40.0,False,,289.9841554333479,[],"[960, 540]",ColorTask,34.0,46.0,,,HRV,HRV_0077,2022-11-30 18:00:12
,wl-rdm,54,163857,0.0-6.46-0.46,0.0,55.0,,,,,,,[],,,,,,87.9,0.0,u,0.0,True,774.2999999523163,47.0,60.0,40.0,False,,261.9940802472954,[],"[960, 540]",ColorTask,35.0,47.0,,,HRV,HRV_0077,2022-11-30 18:00:12
,wl-rdm,55,165842,0.0-6.47-0.47,0.0,56.0,,,,,,,[],,,,,,87.9,1.0,i,1.0,True,627.7999997138977,38.0,60.0,40.0,False,,291.91779205722867,[],"[960, 540]",ColorTask,36.0,48.0,,,HRV,HRV_0077,2022-11-30 18:00:12
,wl-rdm,56,168814,0.0-6.48-0.48,0.0,57.0,,,,,,,[],,,,,,50.0,0.0,u,0.0,True,1615.5999999046326,97.0,60.0,40.0,False,,291.468222516556,[],"[960, 540]",ColorTask,37.0,49.0,,,HRV,HRV_0077,2022-11-30 18:00:12
,wl-rdm,57,171700,0.0-6.49-0.49,0.0,58.0,,,,,,,[],,,,,,56.4,1.0,i,1.0,True,1433.2000000476837,86.0,60.0,40.0,False,,369.83391963545375,[],"[960, 540]",ColorTask,38.0,50.0,,,HRV,HRV_0077,2022-11-30 18:00:12
,wl-rdm,58,173683,0.0-6.50-0.50,0.0,59.0,,,,,,,[],,,,,,53.2,0.0,i,1.0,False,708.900000333786,43.0,60.0,40.0,False,,211.65375839072942,[],"[960, 540]",ColorTask,37.0,51.0,,,HRV,HRV_0077,2022-11-30 18:00:12
,wl-rdm,59,175869,0.0-6.51-0.51,0.0,60.0,,,,,,,[],,,,,,87.9,0.0,u,0.0,True,736.5999999046326,45.0,60.0,40.0,False,,376.55625663583544,[],"[960, 540]",ColorTask,38.0,52.0,,,HRV,HRV_0077,2022-11-30 18:00:12
,wl-rdm,60,178321,0.0-6.52-0.52,0.0,61.0,,,,,,,[],,,,,,53.2,1.0,i,1.0,True,1098.9999997615814,66.0,60.0,40.0,False,,271.82307649637806,[],"[960, 540]",ColorTask,39.0,53.0,,,HRV,HRV_0077,2022-11-30 18:00:12
,wl-rdm,61,180457,0.0-6.53-0.53,0.0,62.0,,,,,,,[],,,,,,87.9,1.0,i,1.0,True,693.7999999523163,42.0,60.0,40.0,False,,366.6717256170714,[],"[960, 540]",ColorTask,40.0,54.0,,,HRV,HRV_0077,2022-11-30 18:00:12
,wl-rdm,62,183160,0.0-6.54-0.54,0.0,63.0,,,,,,,[],,,,,,62.5,0.0,u,0.0,True,1287.0999999046326,77.0,60.0,40.0,False,,347.3629115508878,[],"[960, 540]",ColorTask,41.0,55.0,,,HRV,HRV_0077,2022-11-30 18:00:12
,wl-rdm,63,185163,0.0-6.55-0.55,0.0,64.0,,,,,,,[],,,,,,87.9,0.0,u,0.0,True,678.5999999046326,38.0,60.0,40.0,False,,254.71575744095344,[],"[960, 540]",ColorTask,42.0,56.0,,,HRV,HRV_0077,2022-11-30 18:00:12
,wl-rdm,64,188113,0.0-6.56-0.56,0.0,65.0,,,,,,,[],,,,,,56.4,0.0,u,0.0,True,1508.7000000476837,91.0,60.0,40.0,False,,378.07284530405906,[],"[960, 540]",ColorTask,43.0,57.0,,,HRV,HRV_0077,2022-11-30 18:00:12
,wl-rdm,65,190299,0.0-6.57-0.57,0.0,66.0,,,,,,,[],,,,,,50.0,1.0,i,1.0,True,880.2999999523163,53.0,60.0,40.0,False,,241.2614060415546,[],"[960, 540]",ColorTask,44.0,58.0,,,HRV,HRV_0077,2022-11-30 18:00:12
,wl-rdm,66,193190,0.0-6.58-0.58,0.0,67.0,,,,,,,[],,,,,,50.0,0.0,u,0.0,True,1483.7999999523163,89.0,60.0,40.0,False,,344.21986229454933,[],"[960, 540]",ColorTask,45.0,59.0,,,HRV,HRV_0077,2022-11-30 18:00:12
,wl-rdm,67,195275,0.0-6.59-0.59,0.0,68.0,,,,,,,[],,,,,,87.9,0.0,u,0.0,True,776.0999999046326,47.0,60.0,40.0,False,,242.50073366943002,[],"[960, 540]",ColorTask,46.0,60.0,,,HRV,HRV_0077,2022-11-30 18:00:12
,wl-rdm,68,198075,0.0-6.60-0.60,0.0,69.0,,,,,,,[],,,,,,50.0,1.0,u,0.0,False,1360.8999998569489,82.0,60.0,40.0,False,,350.64474986177663,[],"[960, 540]",ColorTask,45.0,61.0,,,HRV,HRV_0077,2022-11-30 18:00:12
,wl-rdm,69,200292,0.0-6.61-0.61,0.0,70.0,,,,,,,[],,,,,,62.5,1.0,i,1.0,True,853.2000000476837,52.0,60.0,40.0,False,,298.50461396708414,[],"[960, 540]",ColorTask,46.0,62.0,,,HRV,HRV_0077,2022-11-30 18:00:12
,wl-rdm,70,202329,0.0-6.62-0.62,0.0,71.0,,,,,,,[],,,,,,73.6,1.0,i,1.0,True,657.7000000476837,39.0,60.0,40.0,False,,309.6817207420418,[],"[960, 540]",ColorTask,47.0,63.0,,,HRV,HRV_0077,2022-11-30 18:00:12
,wl-rdm,71,204913,0.0-6.63-0.63,0.0,72.0,,,,,,,[],,,,,,53.2,0.0,u,0.0,True,1182.7000000476837,71.0,60.0,40.0,False,,325.9395338379082,[],"[960, 540]",ColorTask,48.0,64.0,,,HRV,HRV_0077,2022-11-30 18:00:12
,wl-rdm,72,207916,0.0-6.64-0.64,0.0,73.0,,,,,,,[],,,,,,50.0,0.0,i,1.0,False,1664.2999999523163,100.0,60.0,40.0,False,,277.4638490025949,[],"[960, 540]",ColorTask,47.0,65.0,,,HRV,HRV_0077,2022-11-30 18:00:12
,wl-rdm,73,210085,0.0-6.65-0.65,0.0,74.0,,,,,,,[],,,,,,62.5,0.0,u,0.0,True,849.6000001430511,51.0,60.0,40.0,False,,263.08556294698536,[],"[960, 540]",ColorTask,48.0,66.0,,,HRV,HRV_0077,2022-11-30 18:00:12
,wl-rdm,74,212053,0.0-6.66-0.66,0.0,75.0,,,,,,,[],,,,,,50.0,0.0,i,1.0,False,665.3999998569489,40.0,60.0,40.0,False,,226.23579195909315,[],"[960, 540]",ColorTask,47.0,67.0,,,HRV,HRV_0077,2022-11-30 18:00:12
,wl-rdm,75,214473,0.0-6.67-0.67,0.0,76.0,,,,,,,[],,,,,,56.4,1.0,i,1.0,True,1103.0999999046326,66.0,60.0,40.0,False,,245.72083092111018,[],"[960, 540]",ColorTask,48.0,68.0,,,HRV,HRV_0077,2022-11-30 18:00:12
,wl-rdm,76,216694,0.0-6.68-0.68,0.0,77.0,,,,,,,[],,,,,,73.6,1.0,i,1.0,True,809.0,49.0,60.0,40.0,False,,329.61823047224266,[],"[960, 540]",ColorTask,49.0,69.0,,,HRV,HRV_0077,2022-11-30 18:00:12
,wl-rdm,77,218912,0.0-6.69-0.69,0.0,78.0,,,,,,,[],,,,,,56.4,1.0,i,1.0,True,904.8999998569489,54.0,60.0,40.0,False,,221.7630037576012,[],"[960, 540]",ColorTask,50.0,70.0,,,HRV,HRV_0077,2022-11-30 18:00:12
,wl-rdm,78,220983,0.0-6.70-0.70,0.0,79.0,,,,,,,[],,,,,,87.9,0.0,u,0.0,True,646.7000000476837,39.0,60.0,40.0,False,,343.2785445178368,[],"[960, 540]",ColorTask,51.0,71.0,,,HRV,HRV_0077,2022-11-30 18:00:12
,wl-rdm,79,223120,0.0-6.71-0.71,0.0,80.0,,,,,,,[],,,,,,73.6,0.0,u,0.0,True,851.3000001907349,52.0,60.0,40.0,False,,209.55514965665714,[],"[960, 540]",ColorTask,52.0,72.0,,,HRV,HRV_0077,2022-11-30 18:00:12
,wl-rdm,80,225752,0.0-6.72-0.72,0.0,81.0,,,,,,,[],,,,,,53.2,1.0,i,1.0,True,1295.8999998569489,78.0,60.0,40.0,False,,269.1652480433827,[],"[960, 540]",ColorTask,53.0,73.0,,,HRV,HRV_0077,2022-11-30 18:00:12
,wl-rdm,81,228355,0.0-6.73-0.73,0.0,82.0,,,,,,,[],,,,,,50.0,0.0,i,1.0,False,1141.9000000953674,69.0,60.0,40.0,False,,382.6497728234801,[],"[960, 540]",ColorTask,52.0,74.0,,,HRV,HRV_0077,2022-11-30 18:00:12
,wl-rdm,82,230424,0.0-6.74-0.74,0.0,83.0,,,,,,,[],,,,,,53.2,1.0,i,1.0,True,625.5,38.0,60.0,40.0,False,,366.63461438917614,[],"[960, 540]",ColorTask,53.0,75.0,,,HRV,HRV_0077,2022-11-30 18:00:12
,wl-rdm,83,233162,0.0-6.75-0.75,0.0,84.0,,,,,,,[],,,,,,53.2,0.0,u,0.0,True,1341.7000000476837,81.0,60.0,40.0,False,,333.4849671971686,[],"[960, 540]",ColorTask,54.0,76.0,,,HRV,HRV_0077,2022-11-30 18:00:12
,wl-rdm,84,235428,0.0-6.76-0.76,0.0,85.0,,,,,,,[],,,,,,53.2,0.0,i,1.0,False,787.2000000476837,48.0,60.0,40.0,False,,391.19376727996143,[],"[960, 540]",ColorTask,53.0,77.0,,,HRV,HRV_0077,2022-11-30 18:00:12
,wl-rdm,85,237797,0.0-6.77-0.77,0.0,86.0,,,,,,,[],,,,,,73.6,0.0,u,0.0,True,1061.9000000953674,64.0,60.0,40.0,False,,241.3018037931778,[],"[960, 540]",ColorTask,54.0,78.0,,,HRV,HRV_0077,2022-11-30 18:00:12
,wl-rdm,86,239983,0.0-6.78-0.78,0.0,87.0,,,,,,,[],,,,,,73.6,0.0,u,0.0,True,704.7000002861023,43.0,60.0,40.0,False,,398.1886144036956,[],"[960, 540]",ColorTask,55.0,79.0,,,HRV,HRV_0077,2022-11-30 18:00:12
,wl-rdm,87,242436,0.0-6.79-0.79,0.0,88.0,,,,,,,[],,,,,,73.6,0.0,u,0.0,True,1050.5,64.0,60.0,40.0,False,,318.91918312363,[],"[960, 540]",ColorTask,56.0,80.0,,,HRV,HRV_0077,2022-11-30 18:00:12
,wl-rdm,88,244487,0.0-6.80-0.80,0.0,89.0,,,,,,,[],,,,,,62.5,1.0,i,1.0,True,650.4999997615814,39.0,60.0,40.0,False,,326.70884545837356,[],"[960, 540]",ColorTask,57.0,81.0,,,HRV,HRV_0077,2022-11-30 18:00:12
,wl-rdm,89,247492,0.0-6.81-0.81,0.0,90.0,,,,,,,[],,,,,,53.2,1.0,i,1.0,True,1639.7999999523163,99.0,60.0,40.0,False,,299.7253631001057,[],"[960, 540]",ColorTask,58.0,82.0,,,HRV,HRV_0077,2022-11-30 18:00:12
,wl-rdm,90,249458,0.0-6.82-0.82,0.0,91.0,,,,,,,[],,,,,,87.9,0.0,u,0.0,True,673.2999999523163,41.0,60.0,40.0,False,,227.23347971568012,[],"[960, 540]",ColorTask,59.0,83.0,,,HRV,HRV_0077,2022-11-30 18:00:12
,wl-rdm,91,251561,0.0-6.83-0.83,0.0,92.0,,,,,,,[],,,,,,73.6,1.0,i,1.0,True,776.5,47.0,60.0,40.0,False,,239.24549225330733,[],"[960, 540]",ColorTask,60.0,84.0,,,HRV,HRV_0077,2022-11-30 18:00:12
,wl-rdm,92,254196,0.0-6.84-0.84,0.0,93.0,,,,,,,[],,,,,,62.5,0.0,u,0.0,True,1230.5999999046326,74.0,60.0,40.0,False,,320.85599627424773,[],"[960, 540]",ColorTask,61.0,85.0,,,HRV,HRV_0077,2022-11-30 18:00:12
,wl-rdm,93,256566,0.0-6.85-0.85,0.0,94.0,,,,,,,[],,,,,,62.5,0.0,u,0.0,True,1075.2999999523163,65.0,60.0,40.0,False,,221.56245920794265,[],"[960, 540]",ColorTask,62.0,86.0,,,HRV,HRV_0077,2022-11-30 18:00:12
,wl-rdm,94,259351,0.0-6.86-0.86,0.0,95.0,,,,,,,[],,,,,,56.4,1.0,i,1.0,True,1329.0999999046326,80.0,60.0,40.0,False,,388.1105001024873,[],"[960, 540]",ColorTask,63.0,87.0,,,HRV,HRV_0077,2022-11-30 18:00:12
,wl-rdm,95,261954,0.0-6.87-0.87,0.0,96.0,,,,,,,[],,,,,,53.2,1.0,i,1.0,True,1141.0999999046326,69.0,60.0,40.0,False,,377.2241634236,[],"[960, 540]",ColorTask,64.0,88.0,,,HRV,HRV_0077,2022-11-30 18:00:12
,wl-rdm,96,264706,0.0-6.88-0.88,0.0,97.0,,,,,,,[],,,,,,56.4,0.0,i,1.0,False,1343.8999998569489,81.0,60.0,40.0,False,,322.0440641316506,[],"[960, 540]",ColorTask,63.0,89.0,,,HRV,HRV_0077,2022-11-30 18:00:12
,wl-rdm,97,267710,0.0-6.89-0.89,0.0,98.0,,,,,,,[],,,,,,50.0,0.0,u,0.0,True,1722.5999999046326,104.0,60.0,40.0,False,,202.03691152141363,[],"[960, 540]",ColorTask,64.0,90.0,,,HRV,HRV_0077,2022-11-30 18:00:12
,wl-rdm,98,269913,0.0-6.90-0.90,0.0,99.0,,,,,,,[],,,,,,62.5,1.0,i,1.0,True,749.3000001907349,45.0,60.0,40.0,False,,397.4168403523039,[],"[960, 540]",ColorTask,65.0,91.0,,,HRV,HRV_0077,2022-11-30 18:00:12
,wl-rdm,99,272650,0.0-6.91-0.91,0.0,100.0,,,,,,,[],,,,,,50.0,1.0,u,0.0,False,1349.3000001907349,81.0,60.0,40.0,False,,328.8427459446397,[],"[960, 540]",ColorTask,64.0,92.0,,,HRV,HRV_0077,2022-11-30 18:00:12
,wl-rdm,100,274901,0.0-6.92-0.92,0.0,101.0,,,,,,,[],,,,,,73.6,1.0,i,1.0,True,911.0,55.0,60.0,40.0,False,,282.0421476233257,[],"[960, 540]",ColorTask,65.0,93.0,,,HRV,HRV_0077,2022-11-30 18:00:12
,wl-rdm,101,277519,0.0-6.93-0.93,0.0,102.0,,,,,,,[],,,,,,62.5,0.0,u,0.0,True,1278.2000000476837,77.0,60.0,40.0,False,,261.2997485757708,[],"[960, 540]",ColorTask,66.0,94.0,,,HRV,HRV_0077,2022-11-30 18:00:12
,wl-rdm,102,279721,0.0-6.94-0.94,0.0,103.0,,,,,,,[],,,,,,62.5,1.0,i,1.0,True,723.0,44.0,60.0,40.0,False,,386.6734407898758,[],"[960, 540]",ColorTask,67.0,95.0,,,HRV,HRV_0077,2022-11-30 18:00:12
,wl-rdm,103,281643,0.0-6.95-0.95,0.0,104.0,,,,,,,[],,,,,,87.9,1.0,i,1.0,True,591.7000002861023,36.0,60.0,40.0,False,,260.25920886252385,[],"[960, 540]",ColorTask,68.0,96.0,,,HRV,HRV_0077,2022-11-30 18:00:12
,wl-rdm,104,284047,0.0-6.96-0.96,0.0,105.0,,,,,,,[],,,,,,50.0,1.0,i,1.0,True,948.7999999523163,57.0,60.0,40.0,False,,381.67372606878905,[],"[960, 540]",ColorTask,69.0,97.0,,,HRV,HRV_0077,2022-11-30 18:00:12
,wl-rdm,105,286162,0.0-6.97-0.97,0.0,106.0,,,,,,,[],,,,,,73.6,0.0,u,0.0,True,814.7999999523163,49.0,60.0,40.0,False,,233.35629393782284,[],"[960, 540]",ColorTask,70.0,98.0,,,HRV,HRV_0077,2022-11-30 18:00:12
,wl-rdm,106,288148,0.0-6.98-0.98,0.0,107.0,,,,,,,[],,,,,,87.9,1.0,u,0.0,False,670.2999999523163,41.0,60.0,40.0,False,,245.78589443498456,[],"[960, 540]",ColorTask,69.0,99.0,,,HRV,HRV_0077,2022-11-30 18:00:12
,wl-rdm,107,290400,0.0-6.99-0.99,0.0,108.0,,,,,,,[],,,,,,73.6,1.0,i,1.0,True,975.0,59.0,60.0,40.0,False,,203.8549943193933,[],"[960, 540]",ColorTask,70.0,100.0,,,HRV,HRV_0077,2022-11-30 18:00:12
,wl-rdm,108,292318,0.0-6.100-0.100,0.0,109.0,,,,,,,[],,,,,,87.9,1.0,i,1.0,True,575.4000000953674,35.0,60.0,40.0,False,,271.48858797208777,[],"[960, 540]",ColorTask,71.0,101.0,,,HRV,HRV_0077,2022-11-30 18:00:12
,wl-rdm,109,294404,0.0-6.101-0.101,0.0,110.0,,,,,,,[],,,,,,53.2,1.0,u,0.0,False,709.7000000476837,43.0,60.0,40.0,False,,285.9344293903258,[],"[960, 540]",ColorTask,70.0,102.0,,,HRV,HRV_0077,2022-11-30 18:00:12
,wl-rdm,110,296476,0.0-6.102-0.102,0.0,111.0,,,,,,,[],,,,,,87.9,1.0,i,1.0,True,674.7999999523163,41.0,60.0,40.0,False,,330.70316646860834,[],"[960, 540]",ColorTask,71.0,103.0,,,HRV,HRV_0077,2022-11-30 18:00:12
,wl-rdm,111,298658,0.0-6.103-0.103,0.0,112.0,,,,,,,[],,,,,,56.4,0.0,u,0.0,True,823.3999998569489,50.0,60.0,40.0,False,,276.8049882802785,[],"[960, 540]",ColorTask,72.0,104.0,,,HRV,HRV_0077,2022-11-30 18:00:12
,wl-rdm,112,300926,0.0-6.104-0.104,0.0,113.0,,,,,,,[],,,,,,50.0,0.0,u,0.0,True,922.8999998569489,56.0,60.0,40.0,False,,262.3401941432822,[],"[960, 540]",ColorTask,73.0,105.0,,,HRV,HRV_0077,2022-11-30 18:00:12
,wl-rdm,113,303245,0.0-6.105-0.105,0.0,114.0,,,,,,,[],,,,,,53.2,0.0,u,0.0,True,852.9999997615814,52.0,60.0,40.0,False,,388.4718864163741,[],"[960, 540]",ColorTask,74.0,106.0,,,HRV,HRV_0077,2022-11-30 18:00:12
,wl-rdm,114,305534,0.0-6.106-0.106,0.0,115.0,,,,,,,[],,,,,,56.4,1.0,i,1.0,True,838.4000000953674,51.0,60.0,40.0,False,,378.4848984464435,[],"[960, 540]",ColorTask,75.0,107.0,,,HRV,HRV_0077,2022-11-30 18:00:12
,wl-rdm,115,308284,0.0-6.107-0.107,0.0,116.0,,,,,,,[],,,,,,50.0,1.0,i,1.0,True,1308.0,79.0,60.0,40.0,False,,372.26303985655613,[],"[960, 540]",ColorTask,76.0,108.0,,,HRV,HRV_0077,2022-11-30 18:00:12
,wl-html-keyboard-response,116,317277,0.0-7.0-0.0,1.0,117.0,,,,,,,,6979.099999904633,1.0,0,,,,,,,,,,,,,,,,,,,,,,HRV,HRV_0077,2022-11-30 18:00:12
,wl-rdm,117,319678,0.0-8.0-0.0,1.0,118.0,,,,,,,[],,,,,,73.6,1.0,i,1.0,True,975.0,59.0,60.0,40.0,False,,351.5475619688949,[],"[960, 540]",ColorTask,77.0,1.0,,,HRV,HRV_0077,2022-11-30 18:00:12
,wl-rdm,118,321698,0.0-8.1-0.1,1.0,119.0,,,,,,,[],,,,,,73.6,1.0,i,1.0,True,657.8999998569489,40.0,60.0,40.0,False,,285.46228390527256,[],"[960, 540]",ColorTask,78.0,2.0,,,HRV,HRV_0077,2022-11-30 18:00:12
,wl-rdm,119,323766,0.0-8.2-0.2,1.0,120.0,,,,,,,[],,,,,,50.0,0.0,u,0.0,True,770.7999999523163,47.0,60.0,40.0,False,,218.98039034489437,[],"[960, 540]",ColorTask,79.0,3.0,,,HRV,HRV_0077,2022-11-30 18:00:12
,wl-rdm,120,325850,0.0-8.3-0.3,1.0,121.0,,,,,,,[],,,,,,87.9,0.0,u,0.0,True,673.1000001430511,41.0,60.0,40.0,False,,320.22183240290167,[],"[960, 540]",ColorTask,80.0,4.0,,,HRV,HRV_0077,2022-11-30 18:00:12
,wl-rdm,121,327920,0.0-8.4-0.4,1.0,122.0,,,,,,,[],,,,,,87.9,1.0,i,1.0,True,639.3000001907349,38.0,60.0,40.0,False,,359.5913874280923,[],"[960, 540]",ColorTask,81.0,5.0,,,HRV,HRV_0077,2022-11-30 18:00:12
,wl-rdm,122,330238,0.0-8.5-0.5,1.0,123.0,,,,,,,[],,,,,,62.5,1.0,i,1.0,True,943.5000002384186,57.0,60.0,40.0,False,,287.06205993839296,[],"[960, 540]",ColorTask,82.0,6.0,,,HRV,HRV_0077,2022-11-30 18:00:12
,wl-rdm,123,332424,0.0-8.6-0.6,1.0,124.0,,,,,,,[],,,,,,62.5,0.0,u,0.0,True,859.6999998092651,52.0,60.0,40.0,False,,265.91509864214265,[],"[960, 540]",ColorTask,83.0,7.0,,,HRV,HRV_0077,2022-11-30 18:00:12
,wl-rdm,124,334977,0.0-8.7-0.7,1.0,125.0,,,,,,,[],,,,,,53.2,1.0,i,1.0,True,1199.9000000953674,72.0,60.0,40.0,False,,281.5132966432293,[],"[960, 540]",ColorTask,84.0,8.0,,,HRV,HRV_0077,2022-11-30 18:00:12
,wl-rdm,125,337012,0.0-8.8-0.8,1.0,126.0,,,,,,,[],,,,,,87.9,0.0,u,0.0,True,704.7000000476837,43.0,60.0,40.0,False,,262.97740268469454,[],"[960, 540]",ColorTask,85.0,9.0,,,HRV,HRV_0077,2022-11-30 18:00:12
,wl-rdm,126,340199,0.0-8.9-0.9,1.0,127.0,,,,,,,[],,,,,,50.0,0.0,i,1.0,False,1808.5,108.0,60.0,40.0,False,,312.0042337485767,[],"[960, 540]",ColorTask,84.0,10.0,,,HRV,HRV_0077,2022-11-30 18:00:12
,wl-rdm,127,342334,0.0-8.10-0.10,1.0,128.0,,,,,,,[],,,,,,73.6,1.0,i,1.0,True,862.7999999523163,52.0,60.0,40.0,False,,206.30358017430098,[],"[960, 540]",ColorTask,85.0,11.0,,,HRV,HRV_0077,2022-11-30 18:00:12
,wl-rdm,128,344553,0.0-8.11-0.11,1.0,129.0,,,,,,,[],,,,,,62.5,1.0,i,1.0,True,841.7999999523163,50.0,60.0,40.0,False,,301.3151422023263,[],"[960, 540]",ColorTask,86.0,12.0,,,HRV,HRV_0077,2022-11-30 18:00:12
,wl-rdm,129,346422,0.0-8.12-0.12,1.0,130.0,,,,,,,[],,,,,,87.9,1.0,i,1.0,True,559.4000000953674,34.0,60.0,40.0,False,,240.63817215625852,[],"[960, 540]",ColorTask,87.0,13.0,,,HRV,HRV_0077,2022-11-30 18:00:12
,wl-rdm,130,348691,0.0-8.13-0.13,1.0,131.0,,,,,,,[],,,,,,62.5,0.0,u,0.0,True,936.5999999046326,57.0,60.0,40.0,False,,258.2697819389229,[],"[960, 540]",ColorTask,88.0,14.0,,,HRV,HRV_0077,2022-11-30 18:00:12
,wl-rdm,131,350926,0.0-8.14-0.14,1.0,132.0,,,,,,,[],,,,,,62.5,1.0,i,1.0,True,902.5999999046326,55.0,60.0,40.0,False,,259.0988426926032,[],"[960, 540]",ColorTask,89.0,15.0,,,HRV,HRV_0077,2022-11-30 18:00:12
,wl-rdm,132,353463,0.0-8.15-0.15,1.0,133.0,,,,,,,[],,,,,,53.2,0.0,u,0.0,True,1083.3999998569489,65.0,60.0,40.0,False,,371.9327006183875,[],"[960, 540]",ColorTask,90.0,16.0,,,HRV,HRV_0077,2022-11-30 18:00:12
,wl-rdm,133,355413,0.0-8.16-0.16,1.0,134.0,,,,,,,[],,,,,,87.9,1.0,i,1.0,True,658.0,40.0,60.0,40.0,False,,229.26144246666527,[],"[960, 540]",ColorTask,91.0,17.0,,,HRV,HRV_0077,2022-11-30 18:00:12
,wl-rdm,134,357382,0.0-8.17-0.17,1.0,135.0,,,,,,,[],,,,,,73.6,0.0,u,0.0,True,627.0,38.0,60.0,40.0,False,,282.62134009481724,[],"[960, 540]",ColorTask,92.0,18.0,,,HRV,HRV_0077,2022-11-30 18:00:12
,wl-rdm,135,359718,0.0-8.18-0.18,1.0,136.0,,,,,,,[],,,,,,50.0,1.0,u,0.0,False,912.0999999046326,55.0,60.0,40.0,False,,341.8830095254723,[],"[960, 540]",ColorTask,91.0,19.0,,,HRV,HRV_0077,2022-11-30 18:00:12
,wl-rdm,136,361788,0.0-8.19-0.19,1.0,137.0,,,,,,,[],,,,,,87.9,0.0,u,0.0,True,756.1000001430511,46.0,60.0,40.0,False,,234.75722778982987,[],"[960, 540]",ColorTask,92.0,20.0,,,HRV,HRV_0077,2022-11-30 18:00:12
,wl-rdm,137,364356,0.0-8.20-0.20,1.0,138.0,,,,,,,[],,,,,,56.4,0.0,u,0.0,True,1146.6000001430511,69.0,60.0,40.0,False,,353.9676331637494,[],"[960, 540]",ColorTask,93.0,21.0,,,HRV,HRV_0077,2022-11-30 18:00:12
,wl-rdm,138,366295,0.0-8.21-0.21,1.0,139.0,,,,,,,[],,,,,,73.6,1.0,i,1.0,True,662.2999999523163,40.0,60.0,40.0,False,,206.8113977581376,[],"[960, 540]",ColorTask,94.0,22.0,,,HRV,HRV_0077,2022-11-30 18:00:12
,wl-rdm,139,368564,0.0-8.22-0.22,1.0,140.0,,,,,,,[],,,,,,50.0,1.0,i,1.0,True,914.7000000476837,55.0,60.0,40.0,False,,286.4646208154272,[],"[960, 540]",ColorTask,95.0,23.0,,,HRV,HRV_0077,2022-11-30 18:00:12
,wl-rdm,140,370561,0.0-8.23-0.23,1.0,141.0,,,,,,,[],,,,,,73.6,0.0,u,0.0,True,720.5999999046326,44.0,60.0,40.0,False,,215.1151091101105,[],"[960, 540]",ColorTask,96.0,24.0,,,HRV,HRV_0077,2022-11-30 18:00:12
,wl-rdm,141,372581,0.0-8.24-0.24,1.0,142.0,,,,,,,[],,,,,,87.9,1.0,i,1.0,True,706.7000000476837,43.0,60.0,40.0,False,,233.96222019039038,[],"[960, 540]",ColorTask,97.0,25.0,,,HRV,HRV_0077,2022-11-30 18:00:12
,wl-rdm,142,374783,0.0-8.25-0.25,1.0,143.0,,,,,,,[],,,,,,53.2,0.0,i,1.0,False,909.3000001907349,55.0,60.0,40.0,False,,218.7101642429802,[],"[960, 540]",ColorTask,96.0,26.0,,,HRV,HRV_0077,2022-11-30 18:00:12
,wl-rdm,143,377085,0.0-8.26-0.26,1.0,144.0,,,,,,,[],,,,,,50.0,0.0,i,1.0,False,1006.5,61.0,60.0,40.0,False,,220.14345356869637,[],"[960, 540]",ColorTask,95.0,27.0,,,HRV,HRV_0077,2022-11-30 18:00:12
,wl-rdm,144,379204,0.0-8.27-0.27,1.0,145.0,,,,,,,[],,,,,,87.9,0.0,u,0.0,True,672.0999999046326,41.0,60.0,40.0,False,,373.7071341683729,[],"[960, 540]",ColorTask,96.0,28.0,,,HRV,HRV_0077,2022-11-30 18:00:12
,wl-rdm,145,381226,0.0-8.28-0.28,1.0,146.0,,,,,,,[],,,,,,73.6,0.0,u,0.0,True,642.8000001907349,39.0,60.0,40.0,False,,309.4827129859282,[],"[960, 540]",ColorTask,97.0,29.0,,,HRV,HRV_0077,2022-11-30 18:00:12
,wl-rdm,146,383611,0.0-8.29-0.29,1.0,147.0,,,,,,,[],,,,,,56.4,1.0,i,1.0,True,1053.2000000476837,63.0,60.0,40.0,False,,252.45583448506937,[],"[960, 540]",ColorTask,98.0,30.0,,,HRV,HRV_0077,2022-11-30 18:00:12
,wl-rdm,147,385962,0.0-8.30-0.30,1.0,148.0,,,,,,,[],,,,,,56.4,1.0,i,1.0,True,962.0999999046326,58.0,60.0,40.0,False,,328.2771981835126,[],"[960, 540]",ColorTask,99.0,31.0,,,HRV,HRV_0077,2022-11-30 18:00:12
,wl-rdm,148,388214,0.0-8.31-0.31,1.0,149.0,,,,,,,[],,,,,,50.0,1.0,u,0.0,False,878.1999998092651,53.0,60.0,40.0,False,,304.4377950094614,[],"[960, 540]",ColorTask,98.0,32.0,,,HRV,HRV_0077,2022-11-30 18:00:12
,wl-rdm,149,390305,0.0-8.32-0.32,1.0,150.0,,,,,,,[],,,,,,56.4,1.0,i,1.0,True,673.0000002384186,41.0,60.0,40.0,False,,350.3218312607129,[],"[960, 540]",ColorTask,99.0,33.0,,,HRV,HRV_0077,2022-11-30 18:00:12
,wl-rdm,150,392318,0.0-8.33-0.33,1.0,151.0,,,,,,,[],,,,,,62.5,1.0,i,1.0,True,705.2999999523163,43.0,60.0,40.0,False,,231.65799581786064,[],"[960, 540]",ColorTask,100.0,34.0,,,HRV,HRV_0077,2022-11-30 18:00:12
,wl-rdm,151,395003,0.0-8.34-0.34,1.0,152.0,,,,,,,[],,,,,,53.2,1.0,u,0.0,False,1227.7999999523163,74.0,60.0,40.0,False,,389.3930365951119,[],"[960, 540]",ColorTask,99.0,35.0,,,HRV,HRV_0077,2022-11-30 18:00:12
,wl-rdm,152,397590,0.0-8.35-0.35,1.0,153.0,,,,,,,[],,,,,,56.4,0.0,u,0.0,True,1252.8999998569489,75.0,60.0,40.0,False,,256.69843984438745,[],"[960, 540]",ColorTask,100.0,36.0,,,HRV,HRV_0077,2022-11-30 18:00:12
,wl-rdm,153,399692,0.0-8.36-0.36,1.0,154.0,,,,,,,[],,,,,,56.4,0.0,u,0.0,True,763.8000001907349,46.0,60.0,40.0,False,,274.00226311475865,[],"[960, 540]",ColorTask,101.0,37.0,,,HRV,HRV_0077,2022-11-30 18:00:12
,wl-rdm,154,401843,0.0-8.37-0.37,1.0,155.0,,,,,,,[],,,,,,87.9,0.0,u,0.0,True,741.6000001430511,45.0,60.0,40.0,False,,328.2831335791767,[],"[960, 540]",ColorTask,102.0,38.0,,,HRV,HRV_0077,2022-11-30 18:00:12
,wl-rdm,155,404231,0.0-8.38-0.38,1.0,156.0,,,,,,,[],,,,,,56.4,0.0,u,0.0,True,1070.7999999523163,65.0,60.0,40.0,False,,231.61572267262406,[],"[960, 540]",ColorTask,103.0,39.0,,,HRV,HRV_0077,2022-11-30 18:00:12
,wl-rdm,156,406702,0.0-8.39-0.39,1.0,157.0,,,,,,,[],,,,,,73.6,0.0,u,0.0,True,1071.5,64.0,60.0,40.0,False,,311.7290051526159,[],"[960, 540]",ColorTask,104.0,40.0,,,HRV,HRV_0077,2022-11-30 18:00:12
,wl-rdm,157,408718,0.0-8.40-0.40,1.0,158.0,,,,,,,[],,,,,,73.6,1.0,i,1.0,True,726.3999998569489,44.0,60.0,40.0,False,,219.66031165362864,[],"[960, 540]",ColorTask,105.0,41.0,,,HRV,HRV_0077,2022-11-30 18:00:12
,wl-rdm,158,410752,0.0-8.41-0.41,1.0,159.0,,,,,,,[],,,,,,73.6,1.0,i,1.0,True,688.7999999523163,42.0,60.0,40.0,False,,268.54453102485286,[],"[960, 540]",ColorTask,106.0,42.0,,,HRV,HRV_0077,2022-11-30 18:00:12
,wl-rdm,159,413021,0.0-8.42-0.42,1.0,160.0,,,,,,,[],,,,,,53.2,1.0,i,1.0,True,985.0999999046326,59.0,60.0,40.0,False,,218.7738026708958,[],"[960, 540]",ColorTask,107.0,43.0,,,HRV,HRV_0077,2022-11-30 18:00:12
,wl-rdm,160,415023,0.0-8.43-0.43,1.0,161.0,,,,,,,[],,,,,,62.5,0.0,u,0.0,True,701.400000333786,42.0,60.0,40.0,False,,229.74542840823568,[],"[960, 540]",ColorTask,108.0,44.0,,,HRV,HRV_0077,2022-11-30 18:00:12
,wl-rdm,161,417159,0.0-8.44-0.44,1.0,162.0,,,,,,,[],,,,,,73.6,0.0,u,0.0,True,753.2999999523163,45.0,60.0,40.0,False,,311.2332071415055,[],"[960, 540]",ColorTask,109.0,45.0,,,HRV,HRV_0077,2022-11-30 18:00:12
,wl-rdm,162,419311,0.0-8.45-0.45,1.0,163.0,,,,,,,[],,,,,,62.5,0.0,u,0.0,True,873.0999999046326,53.0,60.0,40.0,False,,211.04439881721984,[],"[960, 540]",ColorTask,110.0,46.0,,,HRV,HRV_0077,2022-11-30 18:00:12
,wl-rdm,163,421247,0.0-8.46-0.46,1.0,164.0,,,,,,,[],,,,,,87.9,0.0,u,0.0,True,557.7999999523163,34.0,60.0,40.0,False,,291.56020478925063,[],"[960, 540]",ColorTask,111.0,47.0,,,HRV,HRV_0077,2022-11-30 18:00:12
,wl-rdm,164,423601,0.0-8.47-0.47,1.0,165.0,,,,,,,[],,,,,,50.0,0.0,u,0.0,True,929.0,56.0,60.0,40.0,False,,363.2377200198747,[],"[960, 540]",ColorTask,112.0,48.0,,,HRV,HRV_0077,2022-11-30 18:00:12
,wl-rdm,165,426117,0.0-8.48-0.48,1.0,166.0,,,,,,,[],,,,,,53.2,1.0,u,0.0,False,1141.9000000953674,68.0,60.0,40.0,False,,302.36907332100463,[],"[960, 540]",ColorTask,111.0,49.0,,,HRV,HRV_0077,2022-11-30 18:00:12
,wl-rdm,166,428340,0.0-8.49-0.49,1.0,167.0,,,,,,,[],,,,,,62.5,0.0,u,0.0,True,815.6999998092651,49.0,60.0,40.0,False,,327.8520059507586,[],"[960, 540]",ColorTask,112.0,50.0,,,HRV,HRV_0077,2022-11-30 18:00:12
,wl-rdm,167,430324,0.0-8.50-0.50,1.0,168.0,,,,,,,[],,,,,,73.6,0.0,u,0.0,True,665.5000002384186,40.0,60.0,40.0,False,,221.22194238362354,[],"[960, 540]",ColorTask,113.0,51.0,,,HRV,HRV_0077,2022-11-30 18:00:12
,wl-rdm,168,432223,0.0-8.51-0.51,1.0,169.0,,,,,,,[],,,,,,87.9,0.0,u,0.0,True,509.0,31.0,60.0,40.0,False,,302.76295325786805,[],"[960, 540]",ColorTask,114.0,52.0,,,HRV,HRV_0077,2022-11-30 18:00:12
,wl-rdm,169,434158,0.0-8.52-0.52,1.0,170.0,,,,,,,[],,,,,,73.6,0.0,u,0.0,True,632.1000001430511,38.0,60.0,40.0,False,,232.46913641641754,[],"[960, 540]",ColorTask,115.0,53.0,,,HRV,HRV_0077,2022-11-30 18:00:12
,wl-rdm,170,436577,0.0-8.53-0.53,1.0,171.0,,,,,,,[],,,,,,50.0,1.0,i,1.0,True,1137.5999999046326,68.0,60.0,40.0,False,,215.84963241454133,[],"[960, 540]",ColorTask,116.0,54.0,,,HRV,HRV_0077,2022-11-30 18:00:12
,wl-rdm,171,439164,0.0-8.54-0.54,1.0,172.0,,,,,,,[],,,,,,53.2,0.0,i,1.0,False,1313.0999999046326,79.0,60.0,40.0,False,,209.62803104071014,[],"[960, 540]",ColorTask,115.0,55.0,,,HRV,HRV_0077,2022-11-30 18:00:12
,wl-rdm,172,442182,0.0-8.55-0.55,1.0,173.0,,,,,,,[],,,,,,56.4,0.0,i,1.0,False,1633.5,98.0,60.0,40.0,False,,303.4893216071499,[],"[960, 540]",ColorTask,114.0,56.0,,,HRV,HRV_0077,2022-11-30 18:00:12
,wl-rdm,173,444403,0.0-8.56-0.56,1.0,174.0,,,,,,,[],,,,,,87.9,0.0,u,0.0,True,775.2000000476837,47.0,60.0,40.0,False,,374.01226226322296,[],"[960, 540]",ColorTask,115.0,57.0,,,HRV,HRV_0077,2022-11-30 18:00:12
,wl-rdm,174,446437,0.0-8.57-0.57,1.0,175.0,,,,,,,[],,,,,,62.5,1.0,i,1.0,True,688.8999998569489,42.0,60.0,40.0,False,,270.6627689846821,[],"[960, 540]",ColorTask,116.0,58.0,,,HRV,HRV_0077,2022-11-30 18:00:12
,wl-rdm,175,448357,0.0-8.58-0.58,1.0,176.0,,,,,,,[],,,,,,73.6,1.0,i,1.0,True,574.5000002384186,35.0,60.0,40.0,False,,274.7166739375634,[],"[960, 540]",ColorTask,117.0,59.0,,,HRV,HRV_0077,2022-11-30 18:00:12
,wl-rdm,176,450675,0.0-8.59-0.59,1.0,177.0,,,,,,,[],,,,,,50.0,0.0,i,1.0,False,1027.0999999046326,62.0,60.0,40.0,False,,224.21595098847482,[],"[960, 540]",ColorTask,116.0,60.0,,,HRV,HRV_0077,2022-11-30 18:00:12
,wl-rdm,177,453096,0.0-8.60-0.60,1.0,178.0,,,,,,,[],,,,,,56.4,1.0,i,1.0,True,1003.7999999523163,61.0,60.0,40.0,False,,343.18331467886236,[],"[960, 540]",ColorTask,117.0,61.0,,,HRV,HRV_0077,2022-11-30 18:00:12
,wl-rdm,178,455095,0.0-8.61-0.61,1.0,179.0,,,,,,,[],,,,,,73.6,0.0,u,0.0,True,628.9000000953674,38.0,60.0,40.0,False,,306.55300110311396,[],"[960, 540]",ColorTask,118.0,62.0,,,HRV,HRV_0077,2022-11-30 18:00:12
,wl-rdm,179,458349,0.0-8.62-0.62,1.0,180.0,,,,,,,[],,,,,,56.4,1.0,i,1.0,True,1853.6999998092651,111.0,60.0,40.0,False,,325.8983775218728,[],"[960, 540]",ColorTask,119.0,63.0,,,HRV,HRV_0077,2022-11-30 18:00:12
,wl-rdm,180,460953,0.0-8.63-0.63,1.0,181.0,,,,,,,[],,,,,,62.5,0.0,u,0.0,True,1247.6000001430511,75.0,60.0,40.0,False,,287.6973424719045,[],"[960, 540]",ColorTask,120.0,64.0,,,HRV,HRV_0077,2022-11-30 18:00:12
,wl-rdm,181,463822,0.0-8.64-0.64,1.0,182.0,,,,,,,[],,,,,,50.0,0.0,i,1.0,False,1544.1999998092651,94.0,60.0,40.0,False,,237.0517662569345,[],"[960, 540]",ColorTask,119.0,65.0,,,HRV,HRV_0077,2022-11-30 18:00:12
,wl-rdm,182,466158,0.0-8.65-0.65,1.0,183.0,,,,,,,[],,,,,,62.5,1.0,i,1.0,True,1016.7000000476837,62.0,60.0,40.0,False,,235.82318809144303,[],"[960, 540]",ColorTask,120.0,66.0,,,HRV,HRV_0077,2022-11-30 18:00:12
,wl-rdm,183,468092,0.0-8.66-0.66,1.0,184.0,,,,,,,[],,,,,,87.9,1.0,i,1.0,True,632.6999998092651,39.0,60.0,40.0,False,,231.96180959087374,[],"[960, 540]",ColorTask,121.0,67.0,,,HRV,HRV_0077,2022-11-30 18:00:12
,wl-rdm,184,469990,0.0-8.67-0.67,1.0,185.0,,,,,,,[],,,,,,87.9,1.0,i,1.0,True,570.5,35.0,60.0,40.0,False,,242.3416493146858,[],"[960, 540]",ColorTask,122.0,68.0,,,HRV,HRV_0077,2022-11-30 18:00:12
,wl-rdm,185,472064,0.0-8.68-0.68,1.0,186.0,,,,,,,[],,,,,,53.2,1.0,i,1.0,True,678.5,41.0,60.0,40.0,False,,313.278077811984,[],"[960, 540]",ColorTask,123.0,69.0,,,HRV,HRV_0077,2022-11-30 18:00:12
,wl-rdm,186,474416,0.0-8.69-0.69,1.0,187.0,,,,,,,[],,,,,,62.5,1.0,i,1.0,True,993.5999999046326,60.0,60.0,40.0,False,,291.2079390331429,[],"[960, 540]",ColorTask,124.0,70.0,,,HRV,HRV_0077,2022-11-30 18:00:12
,wl-rdm,187,476585,0.0-8.70-0.70,1.0,188.0,,,,,,,[],,,,,,62.5,0.0,u,0.0,True,814.5,49.0,60.0,40.0,False,,290.8028031586908,[],"[960, 540]",ColorTask,125.0,71.0,,,HRV,HRV_0077,2022-11-30 18:00:12
,wl-rdm,188,479371,0.0-8.71-0.71,1.0,189.0,,,,,,,[],,,,,,50.0,1.0,u,0.0,False,1456.5000002384186,88.0,60.0,40.0,False,,257.6390981140477,[],"[960, 540]",ColorTask,124.0,72.0,,,HRV,HRV_0077,2022-11-30 18:00:12
,wl-rdm,189,481675,0.0-8.72-0.72,1.0,190.0,,,,,,,[],,,,,,50.0,1.0,i,1.0,True,839.7999997138977,51.0,60.0,40.0,False,,382.9184995923571,[],"[960, 540]",ColorTask,125.0,73.0,,,HRV,HRV_0077,2022-11-30 18:00:12
,wl-rdm,190,484276,0.0-8.73-0.73,1.0,191.0,,,,,,,[],,,,,,53.2,0.0,u,0.0,True,1261.8000001907349,76.0,60.0,40.0,False,,278.66074805907135,[],"[960, 540]",ColorTask,126.0,74.0,,,HRV,HRV_0077,2022-11-30 18:00:12
,wl-rdm,191,486981,0.0-8.74-0.74,1.0,192.0,,,,,,,[],,,,,,53.2,0.0,u,0.0,True,1374.1000001430511,83.0,60.0,40.0,False,,239.12728310092595,[],"[960, 540]",ColorTask,127.0,75.0,,,HRV,HRV_0077,2022-11-30 18:00:12
,wl-rdm,192,489115,0.0-8.75-0.75,1.0,193.0,,,,,,,[],,,,,,73.6,1.0,i,1.0,True,666.2999999523163,41.0,60.0,40.0,False,,379.8688573057515,[],"[960, 540]",ColorTask,128.0,76.0,,,HRV,HRV_0077,2022-11-30 18:00:12
,wl-rdm,193,491366,0.0-8.76-0.76,1.0,194.0,,,,,,,[],,,,,,50.0,0.0,u,0.0,True,808.5999999046326,49.0,60.0,40.0,False,,374.41757536531145,[],"[960, 540]",ColorTask,129.0,77.0,,,HRV,HRV_0077,2022-11-30 18:00:12
,wl-rdm,194,493985,0.0-8.77-0.77,1.0,195.0,,,,,,,[],,,,,,50.0,1.0,i,1.0,True,1188.2999999523163,72.0,60.0,40.0,False,,354.4948189814687,[],"[960, 540]",ColorTask,130.0,78.0,,,HRV,HRV_0077,2022-11-30 18:00:12
,wl-rdm,195,495956,0.0-8.78-0.78,1.0,196.0,,,,,,,[],,,,,,62.5,1.0,i,1.0,True,649.5999999046326,39.0,60.0,40.0,False,,260.3345264129574,[],"[960, 540]",ColorTask,131.0,79.0,,,HRV,HRV_0077,2022-11-30 18:00:12
,wl-rdm,196,498056,0.0-8.79-0.79,1.0,197.0,,,,,,,[],,,,,,87.9,0.0,u,0.0,True,671.7999999523163,40.0,60.0,40.0,False,,363.9127580677058,[],"[960, 540]",ColorTask,132.0,80.0,,,HRV,HRV_0077,2022-11-30 18:00:12
,wl-rdm,197,500611,0.0-8.80-0.80,1.0,198.0,,,,,,,[],,,,,,53.2,1.0,i,1.0,True,1091.7000000476837,66.0,60.0,40.0,False,,377.06848944879755,[],"[960, 540]",ColorTask,133.0,81.0,,,HRV,HRV_0077,2022-11-30 18:00:12
,wl-rdm,198,502661,0.0-8.81-0.81,1.0,199.0,,,,,,,[],,,,,,53.2,0.0,i,1.0,False,654.0000002384186,40.0,60.0,40.0,False,,328.42255365003723,[],"[960, 540]",ColorTask,132.0,82.0,,,HRV,HRV_0077,2022-11-30 18:00:12
,wl-rdm,199,504663,0.0-8.82-0.82,1.0,200.0,,,,,,,[],,,,,,62.5,0.0,u,0.0,True,731.3999998569489,44.0,60.0,40.0,False,,209.81732218664925,[],"[960, 540]",ColorTask,133.0,83.0,,,HRV,HRV_0077,2022-11-30 18:00:12
,wl-rdm,200,506749,0.0-8.83-0.83,1.0,201.0,,,,,,,[],,,,,,50.0,1.0,i,1.0,True,803.5,49.0,60.0,40.0,False,,205.28537940661067,[],"[960, 540]",ColorTask,134.0,84.0,,,HRV,HRV_0077,2022-11-30 18:00:12
,wl-rdm,201,508850,0.0-8.84-0.84,1.0,202.0,,,,,,,[],,,,,,73.6,1.0,i,1.0,True,810.4999997615814,49.0,60.0,40.0,False,,236.5035086792888,[],"[960, 540]",ColorTask,135.0,85.0,,,HRV,HRV_0077,2022-11-30 18:00:12
,wl-rdm,202,510804,0.0-8.85-0.85,1.0,203.0,,,,,,,[],,,,,,87.9,1.0,i,1.0,True,629.2999999523163,38.0,60.0,40.0,False,,257.60932832688854,[],"[960, 540]",ColorTask,136.0,86.0,,,HRV,HRV_0077,2022-11-30 18:00:12
,wl-rdm,203,513087,0.0-8.86-0.86,1.0,204.0,,,,,,,[],,,,,,53.2,1.0,u,0.0,False,856.7999999523163,52.0,60.0,40.0,False,,339.5847803923924,[],"[960, 540]",ColorTask,135.0,87.0,,,HRV,HRV_0077,2022-11-30 18:00:12
,wl-rdm,204,515476,0.0-8.87-0.87,1.0,205.0,,,,,,,[],,,,,,62.5,1.0,i,1.0,True,1089.3000001907349,66.0,60.0,40.0,False,,226.9896612968466,[],"[960, 540]",ColorTask,136.0,88.0,,,HRV,HRV_0077,2022-11-30 18:00:12
,wl-rdm,205,517676,0.0-8.88-0.88,1.0,206.0,,,,,,,[],,,,,,56.4,0.0,i,1.0,False,902.7000002861023,55.0,60.0,40.0,False,,248.7784780681418,[],"[960, 540]",ColorTask,135.0,89.0,,,HRV,HRV_0077,2022-11-30 18:00:12
,wl-rdm,206,519711,0.0-8.89-0.89,1.0,207.0,,,,,,,[],,,,,,56.4,1.0,i,1.0,True,719.6000001430511,44.0,60.0,40.0,False,,236.38747526760838,[],"[960, 540]",ColorTask,136.0,90.0,,,HRV,HRV_0077,2022-11-30 18:00:12
,wl-rdm,207,521663,0.0-8.90-0.90,1.0,208.0,,,,,,,[],,,,,,87.9,1.0,i,1.0,True,620.7000000476837,38.0,60.0,40.0,False,,242.13542319567864,[],"[960, 540]",ColorTask,137.0,91.0,,,HRV,HRV_0077,2022-11-30 18:00:12
,wl-rdm,208,523651,0.0-8.91-0.91,1.0,209.0,,,,,,,[],,,,,,50.0,0.0,i,1.0,False,685.7999999523163,42.0,60.0,40.0,False,,228.20062382496843,[],"[960, 540]",ColorTask,136.0,92.0,,,HRV,HRV_0077,2022-11-30 18:00:12
,wl-rdm,209,525734,0.0-8.92-0.92,1.0,210.0,,,,,,,[],,,,,,53.2,1.0,i,1.0,True,791.6999998092651,48.0,60.0,40.0,False,,217.20928643455557,[],"[960, 540]",ColorTask,137.0,93.0,,,HRV,HRV_0077,2022-11-30 18:00:12
,wl-rdm,210,528086,0.0-8.93-0.93,1.0,211.0,,,,,,,[],,,,,,56.4,1.0,u,0.0,False,989.4000000953674,60.0,60.0,40.0,False,,284.5950922681012,[],"[960, 540]",ColorTask,136.0,94.0,,,HRV,HRV_0077,2022-11-30 18:00:12
,wl-rdm,211,530774,0.0-8.94-0.94,1.0,212.0,,,,,,,[],,,,,,53.2,0.0,u,0.0,True,1396.0,84.0,60.0,40.0,False,,216.28635390659684,[],"[960, 540]",ColorTask,137.0,95.0,,,HRV,HRV_0077,2022-11-30 18:00:12
,wl-rdm,212,533124,0.0-8.95-0.95,1.0,213.0,,,,,,,[],,,,,,56.4,0.0,u,0.0,True,1043.8000001907349,62.0,60.0,40.0,False,,243.28368132658056,[],"[960, 540]",ColorTask,138.0,96.0,,,HRV,HRV_0077,2022-11-30 18:00:12
,wl-rdm,213,535594,0.0-8.96-0.96,1.0,214.0,,,,,,,[],,,,,,56.4,1.0,i,1.0,True,1078.7999999523163,65.0,60.0,40.0,False,,326.52627472929873,[],"[960, 540]",ColorTask,139.0,97.0,,,HRV,HRV_0077,2022-11-30 18:00:12
,wl-rdm,214,537996,0.0-8.97-0.97,1.0,215.0,,,,,,,[],,,,,,62.5,0.0,u,0.0,True,1092.9999997615814,66.0,60.0,40.0,False,,239.26526282347837,[],"[960, 540]",ColorTask,140.0,98.0,,,HRV,HRV_0077,2022-11-30 18:00:12
,wl-rdm,215,540015,0.0-8.98-0.98,1.0,216.0,,,,,,,[],,,,,,56.4,0.0,u,0.0,True,613.0999999046326,37.0,60.0,40.0,False,,351.1003680337092,[],"[960, 540]",ColorTask,141.0,99.0,,,HRV,HRV_0077,2022-11-30 18:00:12
,wl-rdm,216,542199,0.0-8.99-0.99,1.0,217.0,,,,,,,[],,,,,,53.2,0.0,u,0.0,True,897.7000000476837,54.0,60.0,40.0,False,,221.66770124693906,[],"[960, 540]",ColorTask,142.0,100.0,,,HRV,HRV_0077,2022-11-30 18:00:12
,wl-rdm,217,544952,0.0-8.100-0.100,1.0,218.0,,,,,,,[],,,,,,50.0,1.0,i,1.0,True,1326.0,80.0,60.0,40.0,False,,369.79806961381325,[],"[960, 540]",ColorTask,143.0,101.0,,,HRV,HRV_0077,2022-11-30 18:00:12
,wl-rdm,218,547622,0.0-8.101-0.101,1.0,219.0,,,,,,,[],,,,,,53.2,0.0,u,0.0,True,1384.5,83.0,60.0,40.0,False,,222.1076923482731,[],"[960, 540]",ColorTask,144.0,102.0,,,HRV,HRV_0077,2022-11-30 18:00:12
,wl-rdm,219,549641,0.0-8.102-0.102,1.0,220.0,,,,,,,[],,,,,,73.6,0.0,u,0.0,True,645.6999998092651,39.0,60.0,40.0,False,,313.38355271248605,[],"[960, 540]",ColorTask,145.0,103.0,,,HRV,HRV_0077,2022-11-30 18:00:12
,wl-rdm,220,551793,0.0-8.103-0.103,1.0,221.0,,,,,,,[],,,,,,53.2,1.0,u,0.0,False,850.3999998569489,51.0,60.0,40.0,False,,224.24956860087457,[],"[960, 540]",ColorTask,144.0,104.0,,,HRV,HRV_0077,2022-11-30 18:00:12
,wl-rdm,221,554263,0.0-8.104-0.104,1.0,222.0,,,,,,,[],,,,,,50.0,0.0,i,1.0,False,1127.1000001430511,68.0,60.0,40.0,False,,264.9927089843892,[],"[960, 540]",ColorTask,143.0,105.0,,,HRV,HRV_0077,2022-11-30 18:00:12
,wl-rdm,222,556899,0.0-8.105-0.105,1.0,223.0,,,,,,,[],,,,,,56.4,0.0,u,0.0,True,1330.0,80.0,60.0,40.0,False,,246.23448977961112,[],"[960, 540]",ColorTask,144.0,106.0,,,HRV,HRV_0077,2022-11-30 18:00:12
,wl-rdm,223,559001,0.0-8.106-0.106,1.0,224.0,,,,,,,[],,,,,,87.9,1.0,i,1.0,True,639.5000002384186,39.0,60.0,40.0,False,,385.50572661951026,[],"[960, 540]",ColorTask,145.0,107.0,,,HRV,HRV_0077,2022-11-30 18:00:12
,wl-rdm,224,561501,0.0-8.107-0.107,1.0,225.0,,,,,,,[],,,,,,56.4,1.0,u,0.0,False,1201.4999997615814,71.0,60.0,40.0,False,,229.59406010515437,[],"[960, 540]",ColorTask,144.0,108.0,,,HRV,HRV_0077,2022-11-30 18:00:12
,wl-html-button-response,225,563900,0.0-9.0-0.0,,,,,,,,,,2390.600000143051,,0,,,,,,,,,,,,,,,,,,,,<h3>End of this session. Thank you!</h3><br>,['Close window'],HRV,HRV_0077,2022-11-30 18:00:12
