trialN,stimuli,trialStartTime,trialStartTime_UNIX,stimulus1,stimulus2,stimulus1Bid,stimulus2Bid,delta,selected,rt,rt_UNIX,rt_perfnow,receivedResponse,rsp,trialEndTime,trialDuration,trialEndTime_UNIX,trialDuration_UNIX,exp,subjectId,date
0,"[{'imgObject': {}, 'id': 'rigatoni and sauce', 'src': '/static/foodstim60/rigatoni and sauce.jpg', 'key': 'u', 'origWidth': 410, 'origHeight': 411, 'width': 410, 'height': 411, 'widthPercent': 0.45, 'rescaleHeight': False, 'trialN': 0, 'loaded': True, 'loadedTime': 2426.399999856949, 'positionName': 'LEFT', 'positionCoords': [511.6, 334.5], 'bid': 5.64}, {'imgObject': {}, 'id': 'steak', 'src': '/static/foodstim60/steak.jpg', 'key': 'i', 'origWidth': 410, 'origHeight': 410, 'width': 410, 'height': 410, 'widthPercent': 0.45, 'rescaleHeight': False, 'trialN': 0, 'loaded': True, 'loadedTime': 2535.7000000476837, 'positionName': 'RIGHT', 'positionCoords': [998.4, 335], 'bid': 7.11}]",3209.5,1669830327536,rigatoni and sauce,steak,5.64,7.11,1.4700000000000006,steak,1426.7000000476837,1428,1428.5999999046326,True,i,5144.5,1935.0,1669830329471,1935,HRV,HRV_0077,2022-11-30 17:50:43
1,"[{'imgObject': {}, 'id': 'avocado', 'src': '/static/foodstim60/avocado.jpg', 'key': 'u', 'origWidth': 409, 'origHeight': 409, 'width': 409, 'height': 409, 'widthPercent': 0.45, 'rescaleHeight': False, 'trialN': 1, 'loaded': True, 'loadedTime': 2616.399999856949, 'positionName': 'LEFT', 'positionCoords': [512.6, 335.5], 'bid': 8.03}, {'imgObject': {}, 'id': 'popsicles', 'src': '/static/foodstim60/popsicles.jpg', 'key': 'i', 'origWidth': 410, 'origHeight': 410, 'width': 410, 'height': 410, 'widthPercent': 0.45, 'rescaleHeight': False, 'trialN': 1, 'loaded': True, 'loadedTime': 3185.5, 'positionName': 'RIGHT', 'positionCoords': [998.4, 335], 'bid': 9.3}]",5145.0,1669830329471,avocado,popsicles,8.03,9.3,1.2700000000000014,popsicles,1252.7000000476837,1254,1253.5,True,i,6903.399999856949,1758.3999998569489,1669830331230,1759,HRV,HRV_0077,2022-11-30 17:50:43
2,"[{'imgObject': {}, 'id': 'froot loops w milk', 'src': '/static/foodstim60/froot loops w milk.jpg', 'key': 'u', 'origWidth': 410, 'origHeight': 410, 'width': 410, 'height': 410, 'widthPercent': 0.45, 'rescaleHeight': False, 'trialN': 2, 'loaded': True, 'loadedTime': 2632.7000000476837, 'positionName': 'LEFT', 'positionCoords': [511.6, 335], 'bid': 1.76}, {'imgObject': {}, 'id': 'shreddedwheatwithmilk', 'src': '/static/foodstim60/shreddedwheatwithmilk.jpg', 'key': 'i', 'origWidth': 410, 'origHeight': 410, 'width': 410, 'height': 410, 'widthPercent': 0.45, 'rescaleHeight': False, 'trialN': 2, 'loaded': True, 'loadedTime': 2658.0999999046326, 'positionName': 'RIGHT', 'positionCoords': [998.4, 335], 'bid': 1.83}]",6903.599999904633,1669830331230,froot loops w milk,shreddedwheatwithmilk,1.76,1.83,0.07000000000000006,froot loops w milk,1398.0,1399,1398.7999999523163,True,u,8807.899999856949,1904.2999999523163,1669830333134,1904,HRV,HRV_0077,2022-11-30 17:50:43
3,"[{'imgObject': {}, 'id': 'burrito', 'src': '/static/foodstim60/burrito.jpg', 'key': 'u', 'origWidth': 410, 'origHeight': 410, 'width': 410, 'height': 410, 'widthPercent': 0.45, 'rescaleHeight': False, 'trialN': 3, 'loaded': True, 'loadedTime': 2662.0999999046326, 'positionName': 'LEFT', 'positionCoords': [511.6, 335], 'bid': 6.890000000000001}, {'imgObject': {}, 'id': 'pear', 'src': '/static/foodstim60/pear.jpg', 'key': 'i', 'origWidth': 411, 'origHeight': 410, 'width': 411, 'height': 410, 'widthPercent': 0.45, 'rescaleHeight': False, 'trialN': 3, 'loaded': True, 'loadedTime': 2666.7999999523163, 'positionName': 'RIGHT', 'positionCoords': [998.4, 335], 'bid': 7.05}]",8808.200000047684,1669830333134,burrito,pear,6.890000000000001,7.05,0.15999999999999925,pear,1468.5999999046326,1469,1469.0,True,i,10784.299999952316,1976.0999999046326,1669830335111,1977,HRV,HRV_0077,2022-11-30 17:50:43
4,"[{'imgObject': {}, 'id': 'cherry tomato', 'src': '/static/foodstim60/cherry tomato.jpg', 'key': 'u', 'origWidth': 410, 'origHeight': 410, 'width': 410, 'height': 410, 'widthPercent': 0.45, 'rescaleHeight': False, 'trialN': 4, 'loaded': True, 'loadedTime': 2669.7999999523163, 'positionName': 'LEFT', 'positionCoords': [511.6, 335], 'bid': 0.78}, {'imgObject': {}, 'id': 'hotdog w must', 'src': '/static/foodstim60/hotdog w must.jpg', 'key': 'i', 'origWidth': 409, 'origHeight': 409, 'width': 409, 'height': 409, 'widthPercent': 0.45, 'rescaleHeight': False, 'trialN': 4, 'loaded': True, 'loadedTime': 2676.5999999046326, 'positionName': 'RIGHT', 'positionCoords': [998.4, 335.5], 'bid': 3.37}]",10784.599999904633,1669830335111,cherry tomato,hotdog w must,0.78,3.37,2.59,hotdog w must,1196.4000000953674,1197,1196.7999999523163,True,i,12488.299999952316,1703.7000000476837,1669830336815,1704,HRV,HRV_0077,2022-11-30 17:50:43
5,"[{'imgObject': {}, 'id': 'yogurt no spoon', 'src': '/static/foodstim60/yogurt no spoon.jpg', 'key': 'u', 'origWidth': 411, 'origHeight': 410, 'width': 411, 'height': 410, 'widthPercent': 0.45, 'rescaleHeight': False, 'trialN': 5, 'loaded': True, 'loadedTime': 2679.5999999046326, 'positionName': 'LEFT', 'positionCoords': [510.6, 335], 'bid': 9.14}, {'imgObject': {}, 'id': 'apple slices', 'src': '/static/foodstim60/apple slices.jpg', 'key': 'i', 'origWidth': 409, 'origHeight': 410, 'width': 409, 'height': 410, 'widthPercent': 0.45, 'rescaleHeight': False, 'trialN': 5, 'loaded': True, 'loadedTime': 2702.399999856949, 'positionName': 'RIGHT', 'positionCoords': [998.4, 335], 'bid': 9.17}]",12489.0,1669830336815,yogurt no spoon,apple slices,9.14,9.17,0.02999999999999936,yogurt no spoon,1426.7000000476837,1427,1426.8999998569489,True,u,14416.200000047684,1927.2000000476837,1669830338742,1927,HRV,HRV_0077,2022-11-30 17:50:43
6,"[{'imgObject': {}, 'id': 'granola w milk', 'src': '/static/foodstim60/granola w milk.jpg', 'key': 'u', 'origWidth': 410, 'origHeight': 410, 'width': 410, 'height': 410, 'widthPercent': 0.45, 'rescaleHeight': False, 'trialN': 6, 'loaded': True, 'loadedTime': 2712.899999856949, 'positionName': 'LEFT', 'positionCoords': [511.6, 335], 'bid': 1.84}, {'imgObject': {}, 'id': 'turkey sandwich', 'src': '/static/foodstim60/turkey sandwich.jpg', 'key': 'i', 'origWidth': 409, 'origHeight': 409, 'width': 409, 'height': 409, 'widthPercent': 0.45, 'rescaleHeight': False, 'trialN': 6, 'loaded': True, 'loadedTime': 2817.7999999523163, 'positionName': 'RIGHT', 'positionCoords': [998.4, 335.5], 'bid': 7.22}]",14416.799999952316,1669830338743,granola w milk,turkey sandwich,1.84,7.22,5.38,turkey sandwich,1028.5,1029,1029.0,True,i,15952.799999952316,1536.0,1669830340279,1536,HRV,HRV_0077,2022-11-30 17:50:43
7,"[{'imgObject': {}, 'id': 'chickenfingers', 'src': '/static/foodstim60/chickenfingers.jpg', 'key': 'u', 'origWidth': 410, 'origHeight': 410, 'width': 410, 'height': 410, 'widthPercent': 0.45, 'rescaleHeight': False, 'trialN': 7, 'loaded': True, 'loadedTime': 2830.5999999046326, 'positionName': 'LEFT', 'positionCoords': [511.6, 335], 'bid': 6.61}, {'imgObject': {}, 'id': 'mango', 'src': '/static/foodstim60/mango.jpg', 'key': 'i', 'origWidth': 411, 'origHeight': 411, 'width': 411, 'height': 411, 'widthPercent': 0.45, 'rescaleHeight': False, 'trialN': 7, 'loaded': True, 'loadedTime': 2851.0999999046326, 'positionName': 'RIGHT', 'positionCoords': [998.4, 334.5], 'bid': 5.32}]",15953.0,1669830340279,chickenfingers,mango,6.61,5.32,-1.29,chickenfingers,1420.8999998569489,1422,1421.7000000476837,True,u,17880.299999952316,1927.2999999523163,1669830342207,1928,HRV,HRV_0077,2022-11-30 17:50:43
8,"[{'imgObject': {}, 'id': 'rigatoni and sauce', 'src': '/static/foodstim60/rigatoni and sauce.jpg', 'key': 'u', 'origWidth': 410, 'origHeight': 411, 'width': 410, 'height': 411, 'widthPercent': 0.45, 'rescaleHeight': False, 'trialN': 8, 'loaded': True, 'loadedTime': 2424.399999856949, 'positionName': 'LEFT', 'positionCoords': [511.6, 334.5], 'bid': 5.64}, {'imgObject': {}, 'id': 'rigatoni', 'src': '/static/foodstim60/rigatoni.jpg', 'key': 'i', 'origWidth': 411, 'origHeight': 411, 'width': 411, 'height': 411, 'widthPercent': 0.45, 'rescaleHeight': False, 'trialN': 8, 'loaded': True, 'loadedTime': 2853.2999999523163, 'positionName': 'RIGHT', 'positionCoords': [998.4, 334.5], 'bid': 2.86}]",17880.5,1669830342207,rigatoni and sauce,rigatoni,5.64,2.86,-2.78,rigatoni and sauce,1083.0999999046326,1083,1083.3999998569489,True,u,19472.299999952316,1591.7999999523163,1669830343799,1592,HRV,HRV_0077,2022-11-30 17:50:43
9,"[{'imgObject': {}, 'id': 'pear', 'src': '/static/foodstim60/pear.jpg', 'key': 'u', 'origWidth': 411, 'origHeight': 410, 'width': 411, 'height': 410, 'widthPercent': 0.45, 'rescaleHeight': False, 'trialN': 9, 'loaded': True, 'loadedTime': 2669.7000000476837, 'positionName': 'LEFT', 'positionCoords': [510.6, 335], 'bid': 7.05}, {'imgObject': {}, 'id': 'froot loops w milk', 'src': '/static/foodstim60/froot loops w milk.jpg', 'key': 'i', 'origWidth': 410, 'origHeight': 410, 'width': 410, 'height': 410, 'widthPercent': 0.45, 'rescaleHeight': False, 'trialN': 9, 'loaded': True, 'loadedTime': 2649.2999999523163, 'positionName': 'RIGHT', 'positionCoords': [998.4, 335], 'bid': 1.76}]",19472.5,1669830343799,pear,froot loops w milk,7.05,1.76,-5.29,pear,851.0999999046326,851,851.3999998569489,True,u,20832.299999952316,1359.7999999523163,1669830345159,1360,HRV,HRV_0077,2022-11-30 17:50:43
10,"[{'imgObject': {}, 'id': 'mac & cheese', 'src': '/static/foodstim60/mac & cheese.jpg', 'key': 'u', 'origWidth': 410, 'origHeight': 410, 'width': 410, 'height': 410, 'widthPercent': 0.45, 'rescaleHeight': False, 'trialN': 10, 'loaded': True, 'loadedTime': 2861.0999999046326, 'positionName': 'LEFT', 'positionCoords': [511.6, 335], 'bid': 5.22}, {'imgObject': {}, 'id': 'sushi w_condiments', 'src': '/static/foodstim60/sushi w_condiments.jpg', 'key': 'i', 'origWidth': 410, 'origHeight': 410, 'width': 410, 'height': 410, 'widthPercent': 0.45, 'rescaleHeight': False, 'trialN': 10, 'loaded': True, 'loadedTime': 2864.7999999523163, 'positionName': 'RIGHT', 'positionCoords': [998.4, 335], 'bid': 9}]",20832.5,1669830345159,mac & cheese,sushi w_condiments,5.22,9.0,3.7800000000000002,sushi w_condiments,1029.0999999046326,1030,1030.2000000476837,True,i,22368.799999952316,1536.2999999523163,1669830346695,1536,HRV,HRV_0077,2022-11-30 17:50:43
11,"[{'imgObject': {}, 'id': 'granola w milk', 'src': '/static/foodstim60/granola w milk.jpg', 'key': 'u', 'origWidth': 410, 'origHeight': 410, 'width': 410, 'height': 410, 'widthPercent': 0.45, 'rescaleHeight': False, 'trialN': 11, 'loaded': True, 'loadedTime': 2725.0999999046326, 'positionName': 'LEFT', 'positionCoords': [511.6, 335], 'bid': 1.84}, {'imgObject': {}, 'id': 'raisin bran w milk', 'src': '/static/foodstim60/raisin bran w milk.jpg', 'key': 'i', 'origWidth': 411, 'origHeight': 411, 'width': 411, 'height': 411, 'widthPercent': 0.45, 'rescaleHeight': False, 'trialN': 11, 'loaded': True, 'loadedTime': 2896.2999999523163, 'positionName': 'RIGHT', 'positionCoords': [998.4, 334.5], 'bid': 2.31}]",22369.099999904633,1669830346695,granola w milk,raisin bran w milk,1.84,2.31,0.47,raisin bran w milk,1509.0,1510,1509.7999999523163,True,i,24383.299999952316,2014.2000000476837,1669830348710,2015,HRV,HRV_0077,2022-11-30 17:50:43
12,"[{'imgObject': {}, 'id': 'rigatoni', 'src': '/static/foodstim60/rigatoni.jpg', 'key': 'u', 'origWidth': 411, 'origHeight': 411, 'width': 411, 'height': 411, 'widthPercent': 0.45, 'rescaleHeight': False, 'trialN': 12, 'loaded': True, 'loadedTime': 2855.899999856949, 'positionName': 'LEFT', 'positionCoords': [510.6, 334.5], 'bid': 2.86}, {'imgObject': {}, 'id': 'lox', 'src': '/static/foodstim60/lox.jpg', 'key': 'i', 'origWidth': 410, 'origHeight': 411, 'width': 410, 'height': 411, 'widthPercent': 0.45, 'rescaleHeight': False, 'trialN': 12, 'loaded': True, 'loadedTime': 2898.0999999046326, 'positionName': 'RIGHT', 'positionCoords': [998.4, 334.5], 'bid': 7.94}]",24383.700000047684,1669830348710,rigatoni,lox,2.86,7.94,5.08,lox,883.8999998569489,884,884.1999998092651,True,i,25768.799999952316,1385.0999999046326,1669830350095,1385,HRV,HRV_0077,2022-11-30 17:50:43
13,"[{'imgObject': {}, 'id': 'burger', 'src': '/static/foodstim60/burger.jpg', 'key': 'u', 'origWidth': 409, 'origHeight': 409, 'width': 409, 'height': 409, 'widthPercent': 0.45, 'rescaleHeight': False, 'trialN': 13, 'loaded': True, 'loadedTime': 2901.399999856949, 'positionName': 'LEFT', 'positionCoords': [512.6, 335.5], 'bid': 6.8}, {'imgObject': {}, 'id': 'pear', 'src': '/static/foodstim60/pear.jpg', 'key': 'i', 'origWidth': 411, 'origHeight': 410, 'width': 411, 'height': 410, 'widthPercent': 0.45, 'rescaleHeight': False, 'trialN': 13, 'loaded': True, 'loadedTime': 2667, 'positionName': 'RIGHT', 'positionCoords': [998.4, 335], 'bid': 7.05}]",25768.89999985695,1669830350095,burger,pear,6.8,7.05,0.25,pear,2452.800000190735,2454,2453.7000000476837,True,i,28728.299999952316,2959.4000000953674,1669830353055,2960,HRV,HRV_0077,2022-11-30 17:50:43
14,"[{'imgObject': {}, 'id': 'cherry tomato', 'src': '/static/foodstim60/cherry tomato.jpg', 'key': 'u', 'origWidth': 410, 'origHeight': 410, 'width': 410, 'height': 410, 'widthPercent': 0.45, 'rescaleHeight': False, 'trialN': 14, 'loaded': True, 'loadedTime': 2672.399999856949, 'positionName': 'LEFT', 'positionCoords': [511.6, 335], 'bid': 0.78}, {'imgObject': {}, 'id': 'bagel and cc', 'src': '/static/foodstim60/bagel and cc.jpg', 'key': 'i', 'origWidth': 410, 'origHeight': 410, 'width': 410, 'height': 410, 'widthPercent': 0.45, 'rescaleHeight': False, 'trialN': 14, 'loaded': True, 'loadedTime': 2917.5999999046326, 'positionName': 'RIGHT', 'positionCoords': [998.4, 335], 'bid': 2.32}]",28728.5,1669830353055,cherry tomato,bagel and cc,0.78,2.32,1.5399999999999998,bagel and cc,1732.5999999046326,1733,1733.5,True,i,30963.299999952316,2234.7999999523163,1669830355290,2235,HRV,HRV_0077,2022-11-30 17:50:43
15,"[{'imgObject': {}, 'id': 'burrito', 'src': '/static/foodstim60/burrito.jpg', 'key': 'u', 'origWidth': 410, 'origHeight': 410, 'width': 410, 'height': 410, 'widthPercent': 0.45, 'rescaleHeight': False, 'trialN': 15, 'loaded': True, 'loadedTime': 2661.2000000476837, 'positionName': 'LEFT', 'positionCoords': [511.6, 335], 'bid': 6.890000000000001}, {'imgObject': {}, 'id': 'cheerios', 'src': '/static/foodstim60/cheerios.jpg', 'key': 'i', 'origWidth': 409, 'origHeight': 410, 'width': 409, 'height': 410, 'widthPercent': 0.45, 'rescaleHeight': False, 'trialN': 15, 'loaded': True, 'loadedTime': 2923, 'positionName': 'RIGHT', 'positionCoords': [998.4, 335], 'bid': 1.64}]",30963.599999904633,1669830355290,burrito,cheerios,6.890000000000001,1.64,-5.250000000000001,burrito,1104.9000000953674,1106,1105.7999999523163,True,u,32575.5,1611.9000000953674,1669830356902,1612,HRV,HRV_0077,2022-11-30 17:50:43
16,"[{'imgObject': {}, 'id': 'corn cob', 'src': '/static/foodstim60/corn cob.jpg', 'key': 'u', 'origWidth': 411, 'origHeight': 411, 'width': 411, 'height': 411, 'widthPercent': 0.45, 'rescaleHeight': False, 'trialN': 16, 'loaded': True, 'loadedTime': 2933.2999999523163, 'positionName': 'LEFT', 'positionCoords': [510.6, 334.5], 'bid': 5.33}, {'imgObject': {}, 'id': 'apple slices', 'src': '/static/foodstim60/apple slices.jpg', 'key': 'i', 'origWidth': 409, 'origHeight': 410, 'width': 409, 'height': 410, 'widthPercent': 0.45, 'rescaleHeight': False, 'trialN': 16, 'loaded': True, 'loadedTime': 2702.899999856949, 'positionName': 'RIGHT', 'positionCoords': [998.4, 335], 'bid': 9.17}]",32575.700000047684,1669830356902,corn cob,apple slices,5.33,9.17,3.84,apple slices,885.2999999523163,886,886.3999998569489,True,i,33968.799999952316,1393.0999999046326,1669830358295,1393,HRV,HRV_0077,2022-11-30 17:50:43
17,"[{'imgObject': {}, 'id': 'hashbrowns', 'src': '/static/foodstim60/hashbrowns.jpg', 'key': 'u', 'origWidth': 411, 'origHeight': 410, 'width': 411, 'height': 410, 'widthPercent': 0.45, 'rescaleHeight': False, 'trialN': 17, 'loaded': True, 'loadedTime': 2937.399999856949, 'positionName': 'LEFT', 'positionCoords': [510.6, 335], 'bid': 2.94}, {'imgObject': {}, 'id': 'fried eggs', 'src': '/static/foodstim60/fried eggs.jpg', 'key': 'i', 'origWidth': 410, 'origHeight': 410, 'width': 410, 'height': 410, 'widthPercent': 0.45, 'rescaleHeight': False, 'trialN': 17, 'loaded': True, 'loadedTime': 2939.7000000476837, 'positionName': 'RIGHT', 'positionCoords': [998.4, 335], 'bid': 5.65}]",33969.299999952316,1669830358295,hashbrowns,fried eggs,2.94,5.65,2.7100000000000004,fried eggs,774.0999999046326,778,777.7999999523163,True,i,35248.299999952316,1279.0,1669830359574,1279,HRV,HRV_0077,2022-11-30 17:50:43
18,"[{'imgObject': {}, 'id': 'cherries', 'src': '/static/foodstim60/cherries.jpg', 'key': 'u', 'origWidth': 410, 'origHeight': 411, 'width': 410, 'height': 411, 'widthPercent': 0.45, 'rescaleHeight': False, 'trialN': 18, 'loaded': True, 'loadedTime': 2982.7000000476837, 'positionName': 'LEFT', 'positionCoords': [511.6, 334.5], 'bid': 4.29}, {'imgObject': {}, 'id': 'shreddedwheatwithmilk', 'src': '/static/foodstim60/shreddedwheatwithmilk.jpg', 'key': 'i', 'origWidth': 410, 'origHeight': 410, 'width': 410, 'height': 410, 'widthPercent': 0.45, 'rescaleHeight': False, 'trialN': 18, 'loaded': True, 'loadedTime': 2656.2000000476837, 'positionName': 'RIGHT', 'positionCoords': [998.4, 335], 'bid': 1.83}]",35248.89999985695,1669830359575,cherries,shreddedwheatwithmilk,4.29,1.83,-2.46,cherries,1700.0,1701,1701.4000000953674,True,u,37456.0,2207.100000143051,1669830361782,2207,HRV,HRV_0077,2022-11-30 17:50:43
19,"[{'imgObject': {}, 'id': 'olives', 'src': '/static/foodstim60/olives.jpg', 'key': 'u', 'origWidth': 410, 'origHeight': 410, 'width': 410, 'height': 410, 'widthPercent': 0.45, 'rescaleHeight': False, 'trialN': 19, 'loaded': True, 'loadedTime': 3010.2000000476837, 'positionName': 'LEFT', 'positionCoords': [511.6, 335], 'bid': 1.63}, {'imgObject': {}, 'id': 'hashbrowns', 'src': '/static/foodstim60/hashbrowns.jpg', 'key': 'i', 'origWidth': 411, 'origHeight': 410, 'width': 411, 'height': 410, 'widthPercent': 0.45, 'rescaleHeight': False, 'trialN': 19, 'loaded': True, 'loadedTime': 2938.7000000476837, 'positionName': 'RIGHT', 'positionCoords': [998.4, 335], 'bid': 2.94}]",37456.200000047684,1669830361782,olives,hashbrowns,1.63,2.94,1.31,hashbrowns,1332.0999999046326,1333,1332.7999999523163,True,i,39295.5,1839.2999999523163,1669830363621,1839,HRV,HRV_0077,2022-11-30 17:50:43
20,"[{'imgObject': {}, 'id': 'burger', 'src': '/static/foodstim60/burger.jpg', 'key': 'u', 'origWidth': 409, 'origHeight': 409, 'width': 409, 'height': 409, 'widthPercent': 0.45, 'rescaleHeight': False, 'trialN': 20, 'loaded': True, 'loadedTime': 2906.7000000476837, 'positionName': 'LEFT', 'positionCoords': [512.6, 335.5], 'bid': 6.8}, {'imgObject': {}, 'id': 'grilled chicken strips', 'src': '/static/foodstim60/grilled chicken strips.jpg', 'key': 'i', 'origWidth': 410, 'origHeight': 411, 'width': 410, 'height': 411, 'widthPercent': 0.45, 'rescaleHeight': False, 'trialN': 20, 'loaded': True, 'loadedTime': 3013.7000000476837, 'positionName': 'RIGHT', 'positionCoords': [998.4, 334.5], 'bid': 8.68}]",39295.700000047684,1669830363622,burger,grilled chicken strips,6.8,8.68,1.88,grilled chicken strips,1372.1999998092651,1372,1372.6999998092651,True,i,41168.89999985695,1873.1999998092651,1669830365495,1873,HRV,HRV_0077,2022-11-30 17:50:43
21,"[{'imgObject': {}, 'id': 'apple slices', 'src': '/static/foodstim60/apple slices.jpg', 'key': 'u', 'origWidth': 409, 'origHeight': 410, 'width': 409, 'height': 410, 'widthPercent': 0.45, 'rescaleHeight': False, 'trialN': 21, 'loaded': True, 'loadedTime': 2696.0999999046326, 'positionName': 'LEFT', 'positionCoords': [512.6, 335], 'bid': 9.17}, {'imgObject': {}, 'id': 'salad w chicken', 'src': '/static/foodstim60/salad w chicken.jpg', 'key': 'i', 'origWidth': 411, 'origHeight': 411, 'width': 411, 'height': 411, 'widthPercent': 0.45, 'rescaleHeight': False, 'trialN': 21, 'loaded': True, 'loadedTime': 3016.0999999046326, 'positionName': 'RIGHT', 'positionCoords': [998.4, 334.5], 'bid': 8}]",41169.0,1669830365495,apple slices,salad w chicken,9.17,8.0,-1.17,salad w chicken,1431.7999999523163,1433,1432.8999998569489,True,i,43103.200000047684,1934.2000000476837,1669830367429,1934,HRV,HRV_0077,2022-11-30 17:50:43
22,"[{'imgObject': {}, 'id': 'Grapes', 'src': '/static/foodstim60/Grapes.jpg', 'key': 'u', 'origWidth': 411, 'origHeight': 411, 'width': 411, 'height': 411, 'widthPercent': 0.45, 'rescaleHeight': False, 'trialN': 22, 'loaded': True, 'loadedTime': 3021.399999856949, 'positionName': 'LEFT', 'positionCoords': [510.6, 334.5], 'bid': 6.55}, {'imgObject': {}, 'id': 'cantaloupe', 'src': '/static/foodstim60/cantaloupe.jpg', 'key': 'i', 'origWidth': 409, 'origHeight': 409, 'width': 409, 'height': 409, 'widthPercent': 0.45, 'rescaleHeight': False, 'trialN': 22, 'loaded': True, 'loadedTime': 3031.899999856949, 'positionName': 'RIGHT', 'positionCoords': [998.4, 335.5], 'bid': 8.1}]",43103.39999985695,1669830367429,Grapes,cantaloupe,6.55,8.1,1.5499999999999998,cantaloupe,1182.0,1184,1183.4000000953674,True,i,44792.799999952316,1689.4000000953674,1669830369119,1690,HRV,HRV_0077,2022-11-30 17:50:43
23,"[{'imgObject': {}, 'id': 'roastedpotatoes', 'src': '/static/foodstim60/roastedpotatoes.jpg', 'key': 'u', 'origWidth': 409, 'origHeight': 410, 'width': 409, 'height': 410, 'widthPercent': 0.45, 'rescaleHeight': False, 'trialN': 23, 'loaded': True, 'loadedTime': 3035.2000000476837, 'positionName': 'LEFT', 'positionCoords': [512.6, 335], 'bid': 5.5600000000000005}, {'imgObject': {}, 'id': 'rigatoni and sauce', 'src': '/static/foodstim60/rigatoni and sauce.jpg', 'key': 'i', 'origWidth': 410, 'origHeight': 411, 'width': 410, 'height': 411, 'widthPercent': 0.45, 'rescaleHeight': False, 'trialN': 23, 'loaded': True, 'loadedTime': 2427.7000000476837, 'positionName': 'RIGHT', 'positionCoords': [998.4, 334.5], 'bid': 5.64}]",44793.39999985695,1669830369119,roastedpotatoes,rigatoni and sauce,5.5600000000000005,5.64,0.07999999999999918,rigatoni and sauce,1900.6000001430511,1902,1901.9000000953674,True,i,47199.299999952316,2405.9000000953674,1669830371525,2406,HRV,HRV_0077,2022-11-30 17:50:43
24,"[{'imgObject': {}, 'id': 'lox', 'src': '/static/foodstim60/lox.jpg', 'key': 'u', 'origWidth': 410, 'origHeight': 411, 'width': 410, 'height': 411, 'widthPercent': 0.45, 'rescaleHeight': False, 'trialN': 24, 'loaded': True, 'loadedTime': 2899.2999999523163, 'positionName': 'LEFT', 'positionCoords': [511.6, 334.5], 'bid': 7.94}, {'imgObject': {}, 'id': 'turkeysandwich', 'src': '/static/foodstim60/turkeysandwich.jpg', 'key': 'i', 'origWidth': 409, 'origHeight': 409, 'width': 409, 'height': 409, 'widthPercent': 0.45, 'rescaleHeight': False, 'trialN': 24, 'loaded': True, 'loadedTime': 3041.7999999523163, 'positionName': 'RIGHT', 'positionCoords': [998.4, 335.5], 'bid': 7.32}]",47199.5,1669830371525,lox,turkeysandwich,7.94,7.32,-0.6200000000000001,lox,1654.2000000476837,1655,1654.7000000476837,True,u,49359.5,2160.0,1669830373685,2160,HRV,HRV_0077,2022-11-30 17:50:43
25,"[{'imgObject': {}, 'id': 'roastedpotatoes', 'src': '/static/foodstim60/roastedpotatoes.jpg', 'key': 'u', 'origWidth': 409, 'origHeight': 410, 'width': 409, 'height': 410, 'widthPercent': 0.45, 'rescaleHeight': False, 'trialN': 25, 'loaded': True, 'loadedTime': 3037.7999999523163, 'positionName': 'LEFT', 'positionCoords': [512.6, 335], 'bid': 5.5600000000000005}, {'imgObject': {}, 'id': 'Grapes', 'src': '/static/foodstim60/Grapes.jpg', 'key': 'i', 'origWidth': 411, 'origHeight': 411, 'width': 411, 'height': 411, 'widthPercent': 0.45, 'rescaleHeight': False, 'trialN': 25, 'loaded': True, 'loadedTime': 3020.899999856949, 'positionName': 'RIGHT', 'positionCoords': [998.4, 334.5], 'bid': 6.55}]",49359.89999985695,1669830373686,roastedpotatoes,Grapes,5.5600000000000005,6.55,0.9899999999999993,roastedpotatoes,987.6000001430511,995,995.4000000953674,True,u,50864.299999952316,1504.4000000953674,1669830375190,1504,HRV,HRV_0077,2022-11-30 17:50:43
26,"[{'imgObject': {}, 'id': 'bagel and cc', 'src': '/static/foodstim60/bagel and cc.jpg', 'key': 'u', 'origWidth': 410, 'origHeight': 410, 'width': 410, 'height': 410, 'widthPercent': 0.45, 'rescaleHeight': False, 'trialN': 26, 'loaded': True, 'loadedTime': 2914, 'positionName': 'LEFT', 'positionCoords': [511.6, 335], 'bid': 2.32}, {'imgObject': {}, 'id': 'roastedpotatoes', 'src': '/static/foodstim60/roastedpotatoes.jpg', 'key': 'i', 'origWidth': 409, 'origHeight': 410, 'width': 409, 'height': 410, 'widthPercent': 0.45, 'rescaleHeight': False, 'trialN': 26, 'loaded': True, 'loadedTime': 3037.5999999046326, 'positionName': 'RIGHT', 'positionCoords': [998.4, 335], 'bid': 5.5600000000000005}]",50864.799999952316,1669830375191,bagel and cc,roastedpotatoes,2.32,5.5600000000000005,3.2400000000000007,roastedpotatoes,1443.7999999523163,1444,1444.7000000476837,True,i,52815.200000047684,1950.4000000953674,1669830377141,1950,HRV,HRV_0077,2022-11-30 17:50:43
27,"[{'imgObject': {}, 'id': 'baked potato', 'src': '/static/foodstim60/baked potato.jpg', 'key': 'u', 'origWidth': 409, 'origHeight': 410, 'width': 409, 'height': 410, 'widthPercent': 0.45, 'rescaleHeight': False, 'trialN': 27, 'loaded': True, 'loadedTime': 3045.899999856949, 'positionName': 'LEFT', 'positionCoords': [512.6, 335], 'bid': 3.15}, {'imgObject': {}, 'id': 'hotdog w must', 'src': '/static/foodstim60/hotdog w must.jpg', 'key': 'i', 'origWidth': 409, 'origHeight': 409, 'width': 409, 'height': 409, 'widthPercent': 0.45, 'rescaleHeight': False, 'trialN': 27, 'loaded': True, 'loadedTime': 2676, 'positionName': 'RIGHT', 'positionCoords': [998.4, 335.5], 'bid': 3.37}]",52815.39999985695,1669830377141,baked potato,hotdog w must,3.15,3.37,0.2200000000000002,hotdog w must,1805.4000000953674,1806,1806.0,True,i,55127.39999985695,2312.0,1669830379453,2312,HRV,HRV_0077,2022-11-30 17:50:43
28,"[{'imgObject': {}, 'id': 'cherries', 'src': '/static/foodstim60/cherries.jpg', 'key': 'u', 'origWidth': 410, 'origHeight': 411, 'width': 410, 'height': 411, 'widthPercent': 0.45, 'rescaleHeight': False, 'trialN': 28, 'loaded': True, 'loadedTime': 2982.2000000476837, 'positionName': 'LEFT', 'positionCoords': [511.6, 334.5], 'bid': 4.29}, {'imgObject': {}, 'id': 'blackbeanswithrice', 'src': '/static/foodstim60/blackbeanswithrice.jpg', 'key': 'i', 'origWidth': 410, 'origHeight': 410, 'width': 410, 'height': 410, 'widthPercent': 0.45, 'rescaleHeight': False, 'trialN': 28, 'loaded': True, 'loadedTime': 3055, 'positionName': 'RIGHT', 'positionCoords': [998.4, 335], 'bid': 3.5700000000000003}]",55127.59999990463,1669830379453,cherries,blackbeanswithrice,4.29,3.5700000000000003,-0.7199999999999998,cherries,1734.7000000476837,1736,1735.4000000953674,True,u,57367.39999985695,2239.7999999523163,1669830381693,2240,HRV,HRV_0077,2022-11-30 17:50:43
29,"[{'imgObject': {}, 'id': 'chickenfingers', 'src': '/static/foodstim60/chickenfingers.jpg', 'key': 'u', 'origWidth': 410, 'origHeight': 410, 'width': 410, 'height': 410, 'widthPercent': 0.45, 'rescaleHeight': False, 'trialN': 29, 'loaded': True, 'loadedTime': 2836.899999856949, 'positionName': 'LEFT', 'positionCoords': [511.6, 335], 'bid': 6.61}, {'imgObject': {}, 'id': 'burrito', 'src': '/static/foodstim60/burrito.jpg', 'key': 'i', 'origWidth': 410, 'origHeight': 410, 'width': 410, 'height': 410, 'widthPercent': 0.45, 'rescaleHeight': False, 'trialN': 29, 'loaded': True, 'loadedTime': 2660.7000000476837, 'positionName': 'RIGHT', 'positionCoords': [998.4, 335], 'bid': 6.890000000000001}]",57368.200000047684,1669830381694,chickenfingers,burrito,6.61,6.890000000000001,0.28000000000000025,chickenfingers,1499.6999998092651,1500,1500.3999998569489,True,u,59377.0,2008.7999999523163,1669830383703,2009,HRV,HRV_0077,2022-11-30 17:50:43
30,"[{'imgObject': {}, 'id': 'cantaloupe', 'src': '/static/foodstim60/cantaloupe.jpg', 'key': 'u', 'origWidth': 409, 'origHeight': 409, 'width': 409, 'height': 409, 'widthPercent': 0.45, 'rescaleHeight': False, 'trialN': 30, 'loaded': True, 'loadedTime': 3031.899999856949, 'positionName': 'LEFT', 'positionCoords': [512.6, 335.5], 'bid': 8.1}, {'imgObject': {}, 'id': 'avocado', 'src': '/static/foodstim60/avocado.jpg', 'key': 'i', 'origWidth': 409, 'origHeight': 409, 'width': 409, 'height': 409, 'widthPercent': 0.45, 'rescaleHeight': False, 'trialN': 30, 'loaded': True, 'loadedTime': 2615.399999856949, 'positionName': 'RIGHT', 'positionCoords': [998.4, 335.5], 'bid': 8.03}]",59377.299999952316,1669830383703,cantaloupe,avocado,8.1,8.03,-0.07000000000000028,cantaloupe,1501.0999999046326,1503,1502.4000000953674,True,u,61384.299999952316,2007.0,1669830385710,2007,HRV,HRV_0077,2022-11-30 17:50:43
31,"[{'imgObject': {}, 'id': 'chickenfingers', 'src': '/static/foodstim60/chickenfingers.jpg', 'key': 'u', 'origWidth': 410, 'origHeight': 410, 'width': 410, 'height': 410, 'widthPercent': 0.45, 'rescaleHeight': False, 'trialN': 31, 'loaded': True, 'loadedTime': 2833.5999999046326, 'positionName': 'LEFT', 'positionCoords': [511.6, 335], 'bid': 6.61}, {'imgObject': {}, 'id': 'tacos', 'src': '/static/foodstim60/tacos.jpg', 'key': 'i', 'origWidth': 411, 'origHeight': 411, 'width': 411, 'height': 411, 'widthPercent': 0.45, 'rescaleHeight': False, 'trialN': 31, 'loaded': True, 'loadedTime': 3057.0999999046326, 'positionName': 'RIGHT', 'positionCoords': [998.4, 334.5], 'bid': 8.31}]",61384.39999985695,1669830385710,chickenfingers,tacos,6.61,8.31,1.7000000000000002,tacos,1109.8000001907349,1111,1110.7000000476837,True,i,63000.09999990463,1615.7000000476837,1669830387326,1616,HRV,HRV_0077,2022-11-30 17:50:43
32,"[{'imgObject': {}, 'id': 'cocktailshrimp', 'src': '/static/foodstim60/cocktailshrimp.jpg', 'key': 'u', 'origWidth': 410, 'origHeight': 410, 'width': 410, 'height': 410, 'widthPercent': 0.45, 'rescaleHeight': False, 'trialN': 32, 'loaded': True, 'loadedTime': 3066.0999999046326, 'positionName': 'LEFT', 'positionCoords': [511.6, 335], 'bid': 9.41}, {'imgObject': {}, 'id': 'turkeysandwich', 'src': '/static/foodstim60/turkeysandwich.jpg', 'key': 'i', 'origWidth': 409, 'origHeight': 409, 'width': 409, 'height': 409, 'widthPercent': 0.45, 'rescaleHeight': False, 'trialN': 32, 'loaded': True, 'loadedTime': 3041.2000000476837, 'positionName': 'RIGHT', 'positionCoords': [998.4, 335.5], 'bid': 7.32}]",63000.299999952316,1669830387326,cocktailshrimp,turkeysandwich,9.41,7.32,-2.09,cocktailshrimp,843.0999999046326,843,843.2999999523163,True,u,64344.0,1343.7000000476837,1669830388670,1344,HRV,HRV_0077,2022-11-30 17:50:43
33,"[{'imgObject': {}, 'id': 'cherry tomato', 'src': '/static/foodstim60/cherry tomato.jpg', 'key': 'u', 'origWidth': 410, 'origHeight': 410, 'width': 410, 'height': 410, 'widthPercent': 0.45, 'rescaleHeight': False, 'trialN': 33, 'loaded': True, 'loadedTime': 2673.5, 'positionName': 'LEFT', 'positionCoords': [511.6, 335], 'bid': 0.78}, {'imgObject': {}, 'id': 'luckycharms', 'src': '/static/foodstim60/luckycharms.jpg', 'key': 'i', 'origWidth': 410, 'origHeight': 409, 'width': 410, 'height': 409, 'widthPercent': 0.45, 'rescaleHeight': False, 'trialN': 33, 'loaded': True, 'loadedTime': 3068.7000000476837, 'positionName': 'RIGHT', 'positionCoords': [998.4, 335.5], 'bid': 1.82}]",64344.200000047684,1669830388670,cherry tomato,luckycharms,0.78,1.82,1.04,luckycharms,1206.5999999046326,1209,1208.5999999046326,True,i,66055.59999990463,1711.3999998569489,1669830390381,1711,HRV,HRV_0077,2022-11-30 17:50:43
34,"[{'imgObject': {}, 'id': 'popsicles', 'src': '/static/foodstim60/popsicles.jpg', 'key': 'u', 'origWidth': 410, 'origHeight': 410, 'width': 410, 'height': 410, 'widthPercent': 0.45, 'rescaleHeight': False, 'trialN': 34, 'loaded': True, 'loadedTime': 3185.399999856949, 'positionName': 'LEFT', 'positionCoords': [511.6, 335], 'bid': 9.3}, {'imgObject': {}, 'id': 'Tribe humus pita', 'src': '/static/foodstim60/Tribe humus pita.jpg', 'key': 'i', 'origWidth': 411, 'origHeight': 411, 'width': 411, 'height': 411, 'widthPercent': 0.45, 'rescaleHeight': False, 'trialN': 34, 'loaded': True, 'loadedTime': 3072, 'positionName': 'RIGHT', 'positionCoords': [998.4, 334.5], 'bid': 7.28}]",66055.70000004768,1669830390381,popsicles,Tribe humus pita,9.3,7.28,-2.0200000000000005,popsicles,1644.3999998569489,1645,1644.7999999523163,True,u,68207.89999985695,2152.199999809265,1669830392534,2153,HRV,HRV_0077,2022-11-30 17:50:43
35,"[{'imgObject': {}, 'id': 'banana', 'src': '/static/foodstim60/banana.jpg', 'key': 'u', 'origWidth': 410, 'origHeight': 410, 'width': 410, 'height': 410, 'widthPercent': 0.45, 'rescaleHeight': False, 'trialN': 35, 'loaded': True, 'loadedTime': 3077.5, 'positionName': 'LEFT', 'positionCoords': [511.6, 335], 'bid': 5.42}, {'imgObject': {}, 'id': 'roastedpotatoes', 'src': '/static/foodstim60/roastedpotatoes.jpg', 'key': 'i', 'origWidth': 409, 'origHeight': 410, 'width': 409, 'height': 410, 'widthPercent': 0.45, 'rescaleHeight': False, 'trialN': 35, 'loaded': True, 'loadedTime': 3038.0999999046326, 'positionName': 'RIGHT', 'positionCoords': [998.4, 335], 'bid': 5.5600000000000005}]",68208.0,1669830392534,banana,roastedpotatoes,5.42,5.5600000000000005,0.14000000000000057,roastedpotatoes,1269.5999999046326,1270,1270.5,True,i,69982.89999985695,1774.8999998569489,1669830394309,1775,HRV,HRV_0077,2022-11-30 17:50:43
36,"[{'imgObject': {}, 'id': 'cantaloupe', 'src': '/static/foodstim60/cantaloupe.jpg', 'key': 'u', 'origWidth': 409, 'origHeight': 409, 'width': 409, 'height': 409, 'widthPercent': 0.45, 'rescaleHeight': False, 'trialN': 36, 'loaded': True, 'loadedTime': 3032.0999999046326, 'positionName': 'LEFT', 'positionCoords': [512.6, 335.5], 'bid': 8.1}, {'imgObject': {}, 'id': 'tacos', 'src': '/static/foodstim60/tacos.jpg', 'key': 'i', 'origWidth': 411, 'origHeight': 411, 'width': 411, 'height': 411, 'widthPercent': 0.45, 'rescaleHeight': False, 'trialN': 36, 'loaded': True, 'loadedTime': 3057, 'positionName': 'RIGHT', 'positionCoords': [998.4, 334.5], 'bid': 8.31}]",69983.09999990463,1669830394309,cantaloupe,tacos,8.1,8.31,0.21000000000000085,tacos,1710.7999999523163,1714,1714.2000000476837,True,i,72200.0,2216.9000000953674,1669830396526,2217,HRV,HRV_0077,2022-11-30 17:50:43
37,"[{'imgObject': {}, 'id': 'rigatoni', 'src': '/static/foodstim60/rigatoni.jpg', 'key': 'u', 'origWidth': 411, 'origHeight': 411, 'width': 411, 'height': 411, 'widthPercent': 0.45, 'rescaleHeight': False, 'trialN': 37, 'loaded': True, 'loadedTime': 2854.2000000476837, 'positionName': 'LEFT', 'positionCoords': [510.6, 334.5], 'bid': 2.86}, {'imgObject': {}, 'id': 'edamame', 'src': '/static/foodstim60/edamame.jpg', 'key': 'i', 'origWidth': 409, 'origHeight': 410, 'width': 409, 'height': 410, 'widthPercent': 0.45, 'rescaleHeight': False, 'trialN': 37, 'loaded': True, 'loadedTime': 3088.0999999046326, 'positionName': 'RIGHT', 'positionCoords': [998.4, 335], 'bid': 4.3}]",72200.20000004768,1669830396526,rigatoni,edamame,2.86,4.3,1.44,edamame,2116.0,2116,2116.399999856949,True,i,74823.79999995232,2623.5999999046326,1669830399150,2624,HRV,HRV_0077,2022-11-30 17:50:43
38,"[{'imgObject': {}, 'id': 'raspberries', 'src': '/static/foodstim60/raspberries.jpg', 'key': 'u', 'origWidth': 411, 'origHeight': 411, 'width': 411, 'height': 411, 'widthPercent': 0.45, 'rescaleHeight': False, 'trialN': 38, 'loaded': True, 'loadedTime': 3091.5, 'positionName': 'LEFT', 'positionCoords': [510.6, 334.5], 'bid': 9.75}, {'imgObject': {}, 'id': 'blueberries', 'src': '/static/foodstim60/blueberries.jpg', 'key': 'i', 'origWidth': 411, 'origHeight': 411, 'width': 411, 'height': 411, 'widthPercent': 0.45, 'rescaleHeight': False, 'trialN': 38, 'loaded': True, 'loadedTime': 3099.7999999523163, 'positionName': 'RIGHT', 'positionCoords': [998.4, 334.5], 'bid': 9.59}]",74823.89999985695,1669830399150,raspberries,blueberries,9.75,9.59,-0.16000000000000014,raspberries,1526.4000000953674,1531,1530.8000001907349,True,u,76856.59999990463,2032.7000000476837,1669830401182,2032,HRV,HRV_0077,2022-11-30 17:50:43
39,"[{'imgObject': {}, 'id': 'rigatoni and sauce', 'src': '/static/foodstim60/rigatoni and sauce.jpg', 'key': 'u', 'origWidth': 410, 'origHeight': 411, 'width': 410, 'height': 411, 'widthPercent': 0.45, 'rescaleHeight': False, 'trialN': 39, 'loaded': True, 'loadedTime': 2428, 'positionName': 'LEFT', 'positionCoords': [511.6, 334.5], 'bid': 5.64}, {'imgObject': {}, 'id': 'raspberries', 'src': '/static/foodstim60/raspberries.jpg', 'key': 'i', 'origWidth': 411, 'origHeight': 411, 'width': 411, 'height': 411, 'widthPercent': 0.45, 'rescaleHeight': False, 'trialN': 39, 'loaded': True, 'loadedTime': 3091.0999999046326, 'positionName': 'RIGHT', 'positionCoords': [998.4, 334.5], 'bid': 9.75}]",76856.79999995232,1669830401183,rigatoni and sauce,raspberries,5.64,9.75,4.11,raspberries,869.5999999046326,870,870.2999999523163,True,i,78232.09999990463,1375.2999999523163,1669830402558,1375,HRV,HRV_0077,2022-11-30 17:50:43
40,"[{'imgObject': {}, 'id': 'corn cob', 'src': '/static/foodstim60/corn cob.jpg', 'key': 'u', 'origWidth': 411, 'origHeight': 411, 'width': 411, 'height': 411, 'widthPercent': 0.45, 'rescaleHeight': False, 'trialN': 40, 'loaded': True, 'loadedTime': 2933.0999999046326, 'positionName': 'LEFT', 'positionCoords': [510.6, 334.5], 'bid': 5.33}, {'imgObject': {}, 'id': 'burger', 'src': '/static/foodstim60/burger.jpg', 'key': 'i', 'origWidth': 409, 'origHeight': 409, 'width': 409, 'height': 409, 'widthPercent': 0.45, 'rescaleHeight': False, 'trialN': 40, 'loaded': True, 'loadedTime': 2908.5, 'positionName': 'RIGHT', 'positionCoords': [998.4, 335.5], 'bid': 6.8}]",78232.5,1669830402558,corn cob,burger,5.33,6.8,1.4699999999999998,burger,1104.2999999523163,1106,1105.2000000476837,True,i,79839.09999990463,1606.5999999046326,1669830404165,1607,HRV,HRV_0077,2022-11-30 17:50:43
41,"[{'imgObject': {}, 'id': 'cantaloupe', 'src': '/static/foodstim60/cantaloupe.jpg', 'key': 'u', 'origWidth': 409, 'origHeight': 409, 'width': 409, 'height': 409, 'widthPercent': 0.45, 'rescaleHeight': False, 'trialN': 41, 'loaded': True, 'loadedTime': 3030, 'positionName': 'LEFT', 'positionCoords': [512.6, 335.5], 'bid': 8.1}, {'imgObject': {}, 'id': 'blackbeanswithrice', 'src': '/static/foodstim60/blackbeanswithrice.jpg', 'key': 'i', 'origWidth': 410, 'origHeight': 410, 'width': 410, 'height': 410, 'widthPercent': 0.45, 'rescaleHeight': False, 'trialN': 41, 'loaded': True, 'loadedTime': 3052.2000000476837, 'positionName': 'RIGHT', 'positionCoords': [998.4, 335], 'bid': 3.5700000000000003}]",79839.5,1669830404165,cantaloupe,blackbeanswithrice,8.1,3.5700000000000003,-4.529999999999999,cantaloupe,829.7999999523163,831,830.5,True,u,81176.0,1336.5,1669830405502,1337,HRV,HRV_0077,2022-11-30 17:50:43
42,"[{'imgObject': {}, 'id': 'raspberries', 'src': '/static/foodstim60/raspberries.jpg', 'key': 'u', 'origWidth': 411, 'origHeight': 411, 'width': 411, 'height': 411, 'widthPercent': 0.45, 'rescaleHeight': False, 'trialN': 42, 'loaded': True, 'loadedTime': 3088.7000000476837, 'positionName': 'LEFT', 'positionCoords': [510.6, 334.5], 'bid': 9.75}, {'imgObject': {}, 'id': 'fruitsalad', 'src': '/static/foodstim60/fruitsalad.jpg', 'key': 'i', 'origWidth': 410, 'origHeight': 410, 'width': 410, 'height': 410, 'widthPercent': 0.45, 'rescaleHeight': False, 'trialN': 42, 'loaded': True, 'loadedTime': 3104.2000000476837, 'positionName': 'RIGHT', 'positionCoords': [998.4, 335], 'bid': 9.89}]",81176.20000004768,1669830405502,raspberries,fruitsalad,9.75,9.89,0.14000000000000057,fruitsalad,1163.8999998569489,1164,1164.2999999523163,True,i,82841.20000004768,1665.0,1669830407167,1665,HRV,HRV_0077,2022-11-30 17:50:43
43,"[{'imgObject': {}, 'id': 'yogurt no spoon', 'src': '/static/foodstim60/yogurt no spoon.jpg', 'key': 'u', 'origWidth': 411, 'origHeight': 410, 'width': 411, 'height': 410, 'widthPercent': 0.45, 'rescaleHeight': False, 'trialN': 43, 'loaded': True, 'loadedTime': 2678.7999999523163, 'positionName': 'LEFT', 'positionCoords': [510.6, 335], 'bid': 9.14}, {'imgObject': {}, 'id': 'strawberries', 'src': '/static/foodstim60/strawberries.jpg', 'key': 'i', 'origWidth': 410, 'origHeight': 410, 'width': 410, 'height': 410, 'widthPercent': 0.45, 'rescaleHeight': False, 'trialN': 43, 'loaded': True, 'loadedTime': 3105.5999999046326, 'positionName': 'RIGHT', 'positionCoords': [998.4, 335], 'bid': 9.86}]",82841.70000004768,1669830407167,yogurt no spoon,strawberries,9.14,9.86,0.7199999999999989,strawberries,2178.399999856949,2179,2178.699999809265,True,i,85527.20000004768,2685.5,1669830409853,2686,HRV,HRV_0077,2022-11-30 17:50:43
44,"[{'imgObject': {}, 'id': 'granola w milk', 'src': '/static/foodstim60/granola w milk.jpg', 'key': 'u', 'origWidth': 410, 'origHeight': 410, 'width': 410, 'height': 410, 'widthPercent': 0.45, 'rescaleHeight': False, 'trialN': 44, 'loaded': True, 'loadedTime': 2725.399999856949, 'positionName': 'LEFT', 'positionCoords': [511.6, 335], 'bid': 1.84}, {'imgObject': {}, 'id': 'corn cob', 'src': '/static/foodstim60/corn cob.jpg', 'key': 'i', 'origWidth': 411, 'origHeight': 411, 'width': 411, 'height': 411, 'widthPercent': 0.45, 'rescaleHeight': False, 'trialN': 44, 'loaded': True, 'loadedTime': 2932.2999999523163, 'positionName': 'RIGHT', 'positionCoords': [998.4, 334.5], 'bid': 5.33}]",85527.39999985695,1669830409853,granola w milk,corn cob,1.84,5.33,3.49,corn cob,1430.8000001907349,1433,1432.3000001907349,True,i,87464.0,1936.6000001430511,1669830411790,1937,HRV,HRV_0077,2022-11-30 17:50:43
45,"[{'imgObject': {}, 'id': 'bagel plain', 'src': '/static/foodstim60/bagel plain.jpg', 'key': 'u', 'origWidth': 410, 'origHeight': 410, 'width': 410, 'height': 410, 'widthPercent': 0.45, 'rescaleHeight': False, 'trialN': 45, 'loaded': True, 'loadedTime': 3107.5999999046326, 'positionName': 'LEFT', 'positionCoords': [511.6, 335], 'bid': 1.21}, {'imgObject': {}, 'id': 'olives', 'src': '/static/foodstim60/olives.jpg', 'key': 'i', 'origWidth': 410, 'origHeight': 410, 'width': 410, 'height': 410, 'widthPercent': 0.45, 'rescaleHeight': False, 'trialN': 45, 'loaded': True, 'loadedTime': 3009, 'positionName': 'RIGHT', 'positionCoords': [998.4, 335], 'bid': 1.63}]",87464.29999995232,1669830411790,bagel plain,olives,1.21,1.63,0.41999999999999993,bagel plain,1181.7000000476837,1182,1182.4000000953674,True,u,89152.20000004768,1687.9000000953674,1669830413478,1688,HRV,HRV_0077,2022-11-30 17:50:43
46,"[{'imgObject': {}, 'id': 'salmon', 'src': '/static/foodstim60/salmon.jpg', 'key': 'u', 'origWidth': 410, 'origHeight': 409, 'width': 410, 'height': 409, 'widthPercent': 0.45, 'rescaleHeight': False, 'trialN': 46, 'loaded': True, 'loadedTime': 3123.7999999523163, 'positionName': 'LEFT', 'positionCoords': [511.6, 335.5], 'bid': 8.9}, {'imgObject': {}, 'id': 'grilled chicken strips', 'src': '/static/foodstim60/grilled chicken strips.jpg', 'key': 'i', 'origWidth': 410, 'origHeight': 411, 'width': 410, 'height': 411, 'widthPercent': 0.45, 'rescaleHeight': False, 'trialN': 46, 'loaded': True, 'loadedTime': 3012.5999999046326, 'positionName': 'RIGHT', 'positionCoords': [998.4, 334.5], 'bid': 8.68}]",89152.59999990463,1669830413478,salmon,grilled chicken strips,8.9,8.68,-0.22000000000000064,salmon,992.2999999523163,996,995.4000000953674,True,u,90653.5,1500.9000000953674,1669830414979,1501,HRV,HRV_0077,2022-11-30 17:50:43
47,"[{'imgObject': {}, 'id': 'olives', 'src': '/static/foodstim60/olives.jpg', 'key': 'u', 'origWidth': 410, 'origHeight': 410, 'width': 410, 'height': 410, 'widthPercent': 0.45, 'rescaleHeight': False, 'trialN': 47, 'loaded': True, 'loadedTime': 2984, 'positionName': 'LEFT', 'positionCoords': [511.6, 335], 'bid': 1.63}, {'imgObject': {}, 'id': 'seaweed', 'src': '/static/foodstim60/seaweed.jpg', 'key': 'i', 'origWidth': 410, 'origHeight': 410, 'width': 410, 'height': 410, 'widthPercent': 0.45, 'rescaleHeight': False, 'trialN': 47, 'loaded': True, 'loadedTime': 3123.899999856949, 'positionName': 'RIGHT', 'positionCoords': [998.4, 335], 'bid': 0.85}]",90653.70000004768,1669830414980,olives,seaweed,1.63,0.85,-0.7799999999999999,olives,1864.1999998092651,1865,1865.3999998569489,True,u,93023.79999995232,2370.0999999046326,1669830417350,2370,HRV,HRV_0077,2022-11-30 17:50:43
48,"[{'imgObject': {}, 'id': 'baked potato', 'src': '/static/foodstim60/baked potato.jpg', 'key': 'u', 'origWidth': 409, 'origHeight': 410, 'width': 409, 'height': 410, 'widthPercent': 0.45, 'rescaleHeight': False, 'trialN': 48, 'loaded': True, 'loadedTime': 3046.2999999523163, 'positionName': 'LEFT', 'positionCoords': [512.6, 335], 'bid': 3.15}, {'imgObject': {}, 'id': 'mashed potato', 'src': '/static/foodstim60/mashed potato.jpg', 'key': 'i', 'origWidth': 409, 'origHeight': 409, 'width': 409, 'height': 409, 'widthPercent': 0.45, 'rescaleHeight': False, 'trialN': 48, 'loaded': True, 'loadedTime': 3177.7000000476837, 'positionName': 'RIGHT', 'positionCoords': [998.4, 335.5], 'bid': 5.0600000000000005}]",93024.20000004768,1669830417350,baked potato,mashed potato,3.15,5.0600000000000005,1.9100000000000006,mashed potato,1156.7999999523163,1158,1157.7999999523163,True,i,94687.09999990463,1662.8999998569489,1669830419013,1663,HRV,HRV_0077,2022-11-30 17:50:43
49,"[{'imgObject': {}, 'id': 'rigatoni', 'src': '/static/foodstim60/rigatoni.jpg', 'key': 'u', 'origWidth': 411, 'origHeight': 411, 'width': 411, 'height': 411, 'widthPercent': 0.45, 'rescaleHeight': False, 'trialN': 49, 'loaded': True, 'loadedTime': 2853.7000000476837, 'positionName': 'LEFT', 'positionCoords': [510.6, 334.5], 'bid': 2.86}, {'imgObject': {}, 'id': 'baked potato', 'src': '/static/foodstim60/baked potato.jpg', 'key': 'i', 'origWidth': 409, 'origHeight': 410, 'width': 409, 'height': 410, 'widthPercent': 0.45, 'rescaleHeight': False, 'trialN': 49, 'loaded': True, 'loadedTime': 3042.2999999523163, 'positionName': 'RIGHT', 'positionCoords': [998.4, 335], 'bid': 3.15}]",94687.59999990463,1669830419013,rigatoni,baked potato,2.86,3.15,0.29000000000000004,rigatoni,2069.4000000953674,2071,2070.600000143051,True,u,97263.59999990463,2576.0,1669830421589,2576,HRV,HRV_0077,2022-11-30 17:50:43
50,"[{'imgObject': {}, 'id': 'hashbrowns', 'src': '/static/foodstim60/hashbrowns.jpg', 'key': 'u', 'origWidth': 411, 'origHeight': 410, 'width': 411, 'height': 410, 'widthPercent': 0.45, 'rescaleHeight': False, 'trialN': 50, 'loaded': True, 'loadedTime': 2933.5, 'positionName': 'LEFT', 'positionCoords': [510.6, 335], 'bid': 2.94}, {'imgObject': {}, 'id': 'rigatoni', 'src': '/static/foodstim60/rigatoni.jpg', 'key': 'i', 'origWidth': 411, 'origHeight': 411, 'width': 411, 'height': 411, 'widthPercent': 0.45, 'rescaleHeight': False, 'trialN': 50, 'loaded': True, 'loadedTime': 2851.5, 'positionName': 'RIGHT', 'positionCoords': [998.4, 334.5], 'bid': 2.86}]",97263.79999995232,1669830421590,hashbrowns,rigatoni,2.94,2.86,-0.08000000000000007,rigatoni,844.0,844,844.2999999523163,True,i,98617.89999985695,1354.0999999046326,1669830422944,1354,HRV,HRV_0077,2022-11-30 17:50:43
51,"[{'imgObject': {}, 'id': 'turkey sandwich', 'src': '/static/foodstim60/turkey sandwich.jpg', 'key': 'u', 'origWidth': 409, 'origHeight': 409, 'width': 409, 'height': 409, 'widthPercent': 0.45, 'rescaleHeight': False, 'trialN': 51, 'loaded': True, 'loadedTime': 2725.7000000476837, 'positionName': 'LEFT', 'positionCoords': [512.6, 335.5], 'bid': 7.22}, {'imgObject': {}, 'id': 'apple slices', 'src': '/static/foodstim60/apple slices.jpg', 'key': 'i', 'origWidth': 409, 'origHeight': 410, 'width': 409, 'height': 410, 'widthPercent': 0.45, 'rescaleHeight': False, 'trialN': 51, 'loaded': True, 'loadedTime': 2680.7999999523163, 'positionName': 'RIGHT', 'positionCoords': [998.4, 335], 'bid': 9.17}]",98618.59999990463,1669830422944,turkey sandwich,apple slices,7.22,9.17,1.9500000000000002,apple slices,1083.5,1085,1084.4000000953674,True,i,100207.79999995232,1589.2000000476837,1669830424534,1590,HRV,HRV_0077,2022-11-30 17:50:43
52,"[{'imgObject': {}, 'id': 'corn cob', 'src': '/static/foodstim60/corn cob.jpg', 'key': 'u', 'origWidth': 411, 'origHeight': 411, 'width': 411, 'height': 411, 'widthPercent': 0.45, 'rescaleHeight': False, 'trialN': 52, 'loaded': True, 'loadedTime': 2927.7999999523163, 'positionName': 'LEFT', 'positionCoords': [510.6, 334.5], 'bid': 5.33}, {'imgObject': {}, 'id': 'cherries', 'src': '/static/foodstim60/cherries.jpg', 'key': 'i', 'origWidth': 410, 'origHeight': 411, 'width': 410, 'height': 411, 'widthPercent': 0.45, 'rescaleHeight': False, 'trialN': 52, 'loaded': True, 'loadedTime': 2946, 'positionName': 'RIGHT', 'positionCoords': [998.4, 334.5], 'bid': 4.29}]",100208.0,1669830424534,corn cob,cherries,5.33,4.29,-1.04,cherries,1269.5999999046326,1270,1270.2000000476837,True,i,101983.70000004768,1775.7000000476837,1669830426309,1775,HRV,HRV_0077,2022-11-30 17:50:43
53,"[{'imgObject': {}, 'id': 'mango', 'src': '/static/foodstim60/mango.jpg', 'key': 'u', 'origWidth': 411, 'origHeight': 411, 'width': 411, 'height': 411, 'widthPercent': 0.45, 'rescaleHeight': False, 'trialN': 53, 'loaded': True, 'loadedTime': 2849.5999999046326, 'positionName': 'LEFT', 'positionCoords': [510.6, 334.5], 'bid': 5.32}, {'imgObject': {}, 'id': 'blackbeanswithrice', 'src': '/static/foodstim60/blackbeanswithrice.jpg', 'key': 'i', 'origWidth': 410, 'origHeight': 410, 'width': 410, 'height': 410, 'widthPercent': 0.45, 'rescaleHeight': False, 'trialN': 53, 'loaded': True, 'loadedTime': 3055.2000000476837, 'positionName': 'RIGHT', 'positionCoords': [998.4, 335], 'bid': 3.5700000000000003}]",101984.20000004768,1669830426310,mango,blackbeanswithrice,5.32,3.5700000000000003,-1.75,mango,1427.8999998569489,1428,1428.1999998092651,True,u,103919.39999985695,1935.1999998092651,1669830428245,1935,HRV,HRV_0077,2022-11-30 17:50:43
54,"[{'imgObject': {}, 'id': 'sweetpotato', 'src': '/static/foodstim60/sweetpotato.jpg', 'key': 'u', 'origWidth': 410, 'origHeight': 410, 'width': 410, 'height': 410, 'widthPercent': 0.45, 'rescaleHeight': False, 'trialN': 54, 'loaded': True, 'loadedTime': 3179.0999999046326, 'positionName': 'LEFT', 'positionCoords': [511.6, 335], 'bid': 2.61}, {'imgObject': {}, 'id': 'eggs', 'src': '/static/foodstim60/eggs.jpg', 'key': 'i', 'origWidth': 409, 'origHeight': 409, 'width': 409, 'height': 409, 'widthPercent': 0.45, 'rescaleHeight': False, 'trialN': 54, 'loaded': True, 'loadedTime': 3180.899999856949, 'positionName': 'RIGHT', 'positionCoords': [998.4, 335.5], 'bid': 5.58}]",103919.59999990463,1669830428245,sweetpotato,eggs,2.61,5.58,2.97,eggs,1077.6000001430511,1079,1078.7000000476837,True,i,105503.09999990463,1583.5,1669830429829,1584,HRV,HRV_0077,2022-11-30 17:50:43
55,"[{'imgObject': {}, 'id': 'burger', 'src': '/static/foodstim60/burger.jpg', 'key': 'u', 'origWidth': 409, 'origHeight': 409, 'width': 409, 'height': 409, 'widthPercent': 0.45, 'rescaleHeight': False, 'trialN': 55, 'loaded': True, 'loadedTime': 2903.2999999523163, 'positionName': 'LEFT', 'positionCoords': [512.6, 335.5], 'bid': 6.8}, {'imgObject': {}, 'id': 'olives', 'src': '/static/foodstim60/olives.jpg', 'key': 'i', 'origWidth': 410, 'origHeight': 410, 'width': 410, 'height': 410, 'widthPercent': 0.45, 'rescaleHeight': False, 'trialN': 55, 'loaded': True, 'loadedTime': 3010.2999999523163, 'positionName': 'RIGHT', 'positionCoords': [998.4, 335], 'bid': 1.63}]",105503.29999995232,1669830429829,burger,olives,6.8,1.63,-5.17,burger,951.2000000476837,953,953.0,True,u,106960.59999990463,1457.2999999523163,1669830431286,1457,HRV,HRV_0077,2022-11-30 17:50:43
56,"[{'imgObject': {}, 'id': 'mashed potato', 'src': '/static/foodstim60/mashed potato.jpg', 'key': 'u', 'origWidth': 409, 'origHeight': 409, 'width': 409, 'height': 409, 'widthPercent': 0.45, 'rescaleHeight': False, 'trialN': 56, 'loaded': True, 'loadedTime': 3170.2000000476837, 'positionName': 'LEFT', 'positionCoords': [512.6, 335.5], 'bid': 5.0600000000000005}, {'imgObject': {}, 'id': 'mango', 'src': '/static/foodstim60/mango.jpg', 'key': 'i', 'origWidth': 411, 'origHeight': 411, 'width': 411, 'height': 411, 'widthPercent': 0.45, 'rescaleHeight': False, 'trialN': 56, 'loaded': True, 'loadedTime': 2841.2999999523163, 'positionName': 'RIGHT', 'positionCoords': [998.4, 334.5], 'bid': 5.32}]",106961.0,1669830431287,mashed potato,mango,5.0600000000000005,5.32,0.2599999999999998,mashed potato,1003.0999999046326,1003,1003.5999999046326,True,u,108471.5,1510.5,1669830432797,1510,HRV,HRV_0077,2022-11-30 17:50:43
57,"[{'imgObject': {}, 'id': 'hotdog w must', 'src': '/static/foodstim60/hotdog w must.jpg', 'key': 'u', 'origWidth': 409, 'origHeight': 409, 'width': 409, 'height': 409, 'widthPercent': 0.45, 'rescaleHeight': False, 'trialN': 57, 'loaded': True, 'loadedTime': 2675.2999999523163, 'positionName': 'LEFT', 'positionCoords': [512.6, 335.5], 'bid': 3.37}, {'imgObject': {}, 'id': 'mac & cheese', 'src': '/static/foodstim60/mac & cheese.jpg', 'key': 'i', 'origWidth': 410, 'origHeight': 410, 'width': 410, 'height': 410, 'widthPercent': 0.45, 'rescaleHeight': False, 'trialN': 57, 'loaded': True, 'loadedTime': 2861.5999999046326, 'positionName': 'RIGHT', 'positionCoords': [998.4, 335], 'bid': 5.22}]",108471.59999990463,1669830432797,hotdog w must,mac & cheese,3.37,5.22,1.8499999999999996,mac & cheese,1262.2999999523163,1264,1263.4000000953674,True,i,110239.5,1767.9000000953674,1669830434565,1768,HRV,HRV_0077,2022-11-30 17:50:43
58,"[{'imgObject': {}, 'id': 'orange slices', 'src': '/static/foodstim60/orange slices.jpg', 'key': 'u', 'origWidth': 409, 'origHeight': 410, 'width': 409, 'height': 410, 'widthPercent': 0.45, 'rescaleHeight': False, 'trialN': 58, 'loaded': True, 'loadedTime': 3181, 'positionName': 'LEFT', 'positionCoords': [512.6, 335], 'bid': 8.75}, {'imgObject': {}, 'id': 'cocktailshrimp', 'src': '/static/foodstim60/cocktailshrimp.jpg', 'key': 'i', 'origWidth': 410, 'origHeight': 410, 'width': 410, 'height': 410, 'widthPercent': 0.45, 'rescaleHeight': False, 'trialN': 58, 'loaded': True, 'loadedTime': 3066.2000000476837, 'positionName': 'RIGHT', 'positionCoords': [998.4, 335], 'bid': 9.41}]",110239.70000004768,1669830434565,orange slices,cocktailshrimp,8.75,9.41,0.6600000000000001,cocktailshrimp,953.8999998569489,957,956.6999998092651,True,i,111704.5,1464.7999999523163,1669830436030,1465,HRV,HRV_0077,2022-11-30 17:50:43
59,"[{'imgObject': {}, 'id': 'salad w chicken', 'src': '/static/foodstim60/salad w chicken.jpg', 'key': 'u', 'origWidth': 411, 'origHeight': 411, 'width': 411, 'height': 411, 'widthPercent': 0.45, 'rescaleHeight': False, 'trialN': 59, 'loaded': True, 'loadedTime': 3014.2000000476837, 'positionName': 'LEFT', 'positionCoords': [510.6, 334.5], 'bid': 8}, {'imgObject': {}, 'id': 'veggieswithdip', 'src': '/static/foodstim60/veggieswithdip.jpg', 'key': 'i', 'origWidth': 409, 'origHeight': 409, 'width': 409, 'height': 409, 'widthPercent': 0.45, 'rescaleHeight': False, 'trialN': 59, 'loaded': True, 'loadedTime': 2465.399999856949, 'positionName': 'RIGHT', 'positionCoords': [998.4, 335.5], 'bid': 7.390000000000001}]",111704.70000004768,1669830436030,salad w chicken,veggieswithdip,8.0,7.390000000000001,-0.6099999999999994,salad w chicken,1524.5999999046326,1526,1525.1999998092651,True,u,113735.20000004768,2030.5,1669830438061,2031,HRV,HRV_0077,2022-11-30 17:50:43
60,"[{'imgObject': {}, 'id': 'chickenfingers', 'src': '/static/foodstim60/chickenfingers.jpg', 'key': 'u', 'origWidth': 410, 'origHeight': 410, 'width': 410, 'height': 410, 'widthPercent': 0.45, 'rescaleHeight': False, 'trialN': 60, 'loaded': True, 'loadedTime': 2837.2999999523163, 'positionName': 'LEFT', 'positionCoords': [511.6, 335], 'bid': 6.61}, {'imgObject': {}, 'id': 'eggs', 'src': '/static/foodstim60/eggs.jpg', 'key': 'i', 'origWidth': 409, 'origHeight': 409, 'width': 409, 'height': 409, 'widthPercent': 0.45, 'rescaleHeight': False, 'trialN': 60, 'loaded': True, 'loadedTime': 3180.7000000476837, 'positionName': 'RIGHT', 'positionCoords': [998.4, 335.5], 'bid': 5.58}]",113735.20000004768,1669830438061,chickenfingers,eggs,6.61,5.58,-1.0300000000000002,chickenfingers,870.1999998092651,872,871.8999998569489,True,u,115113.0,1377.7999999523163,1669830439439,1378,HRV,HRV_0077,2022-11-30 17:50:43
61,"[{'imgObject': {}, 'id': 'yogurt no spoon', 'src': '/static/foodstim60/yogurt no spoon.jpg', 'key': 'u', 'origWidth': 411, 'origHeight': 410, 'width': 411, 'height': 410, 'widthPercent': 0.45, 'rescaleHeight': False, 'trialN': 61, 'loaded': True, 'loadedTime': 2678.2999999523163, 'positionName': 'LEFT', 'positionCoords': [510.6, 335], 'bid': 9.14}, {'imgObject': {}, 'id': 'lox', 'src': '/static/foodstim60/lox.jpg', 'key': 'i', 'origWidth': 410, 'origHeight': 411, 'width': 410, 'height': 411, 'widthPercent': 0.45, 'rescaleHeight': False, 'trialN': 61, 'loaded': True, 'loadedTime': 2899.7999999523163, 'positionName': 'RIGHT', 'positionCoords': [998.4, 334.5], 'bid': 7.94}]",115113.59999990463,1669830439439,yogurt no spoon,lox,9.14,7.94,-1.2000000000000002,yogurt no spoon,1443.5,1445,1444.4000000953674,True,u,117064.59999990463,1951.0,1669830441390,1951,HRV,HRV_0077,2022-11-30 17:50:43
62,"[{'imgObject': {}, 'id': 'bagel and cc', 'src': '/static/foodstim60/bagel and cc.jpg', 'key': 'u', 'origWidth': 410, 'origHeight': 410, 'width': 410, 'height': 410, 'widthPercent': 0.45, 'rescaleHeight': False, 'trialN': 62, 'loaded': True, 'loadedTime': 2912.0999999046326, 'positionName': 'LEFT', 'positionCoords': [511.6, 335], 'bid': 2.32}, {'imgObject': {}, 'id': 'turkeysandwich', 'src': '/static/foodstim60/turkeysandwich.jpg', 'key': 'i', 'origWidth': 409, 'origHeight': 409, 'width': 409, 'height': 409, 'widthPercent': 0.45, 'rescaleHeight': False, 'trialN': 62, 'loaded': True, 'loadedTime': 3041.899999856949, 'positionName': 'RIGHT', 'positionCoords': [998.4, 335.5], 'bid': 7.32}]",117065.20000004768,1669830441391,bagel and cc,turkeysandwich,2.32,7.32,5.0,turkeysandwich,1194.1999998092651,1194,1194.5,True,i,118768.29999995232,1703.0999999046326,1669830443094,1703,HRV,HRV_0077,2022-11-30 17:50:43
63,"[{'imgObject': {}, 'id': 'olives', 'src': '/static/foodstim60/olives.jpg', 'key': 'u', 'origWidth': 410, 'origHeight': 410, 'width': 410, 'height': 410, 'widthPercent': 0.45, 'rescaleHeight': False, 'trialN': 63, 'loaded': True, 'loadedTime': 3009.5999999046326, 'positionName': 'LEFT', 'positionCoords': [511.6, 335], 'bid': 1.63}, {'imgObject': {}, 'id': 'edamame', 'src': '/static/foodstim60/edamame.jpg', 'key': 'i', 'origWidth': 409, 'origHeight': 410, 'width': 409, 'height': 410, 'widthPercent': 0.45, 'rescaleHeight': False, 'trialN': 63, 'loaded': True, 'loadedTime': 3088.5999999046326, 'positionName': 'RIGHT', 'positionCoords': [998.4, 335], 'bid': 4.3}]",118768.70000004768,1669830443094,olives,edamame,1.63,4.3,2.67,olives,1403.5999999046326,1404,1403.8999998569489,True,u,120679.39999985695,1910.6999998092651,1669830445005,1911,HRV,HRV_0077,2022-11-30 17:50:43
64,"[{'imgObject': {}, 'id': 'edamame', 'src': '/static/foodstim60/edamame.jpg', 'key': 'u', 'origWidth': 409, 'origHeight': 410, 'width': 409, 'height': 410, 'widthPercent': 0.45, 'rescaleHeight': False, 'trialN': 64, 'loaded': True, 'loadedTime': 3088.399999856949, 'positionName': 'LEFT', 'positionCoords': [512.6, 335], 'bid': 4.3}, {'imgObject': {}, 'id': 'blackbeanswithrice', 'src': '/static/foodstim60/blackbeanswithrice.jpg', 'key': 'i', 'origWidth': 410, 'origHeight': 410, 'width': 410, 'height': 410, 'widthPercent': 0.45, 'rescaleHeight': False, 'trialN': 64, 'loaded': True, 'loadedTime': 3047.7000000476837, 'positionName': 'RIGHT', 'positionCoords': [998.4, 335], 'bid': 3.5700000000000003}]",120680.09999990463,1669830445006,edamame,blackbeanswithrice,4.3,3.5700000000000003,-0.7299999999999995,blackbeanswithrice,1173.2999999523163,1174,1174.2999999523163,True,i,122360.09999990463,1680.0,1669830446686,1680,HRV,HRV_0077,2022-11-30 17:50:43
65,"[{'imgObject': {}, 'id': 'cantaloupe', 'src': '/static/foodstim60/cantaloupe.jpg', 'key': 'u', 'origWidth': 409, 'origHeight': 409, 'width': 409, 'height': 409, 'widthPercent': 0.45, 'rescaleHeight': False, 'trialN': 65, 'loaded': True, 'loadedTime': 3022.2000000476837, 'positionName': 'LEFT', 'positionCoords': [512.6, 335.5], 'bid': 8.1}, {'imgObject': {}, 'id': 'turkeysandwich', 'src': '/static/foodstim60/turkeysandwich.jpg', 'key': 'i', 'origWidth': 409, 'origHeight': 409, 'width': 409, 'height': 409, 'widthPercent': 0.45, 'rescaleHeight': False, 'trialN': 65, 'loaded': True, 'loadedTime': 3042.0999999046326, 'positionName': 'RIGHT', 'positionCoords': [998.4, 335.5], 'bid': 7.32}]",122360.70000004768,1669830446686,cantaloupe,turkeysandwich,8.1,7.32,-0.7799999999999994,cantaloupe,916.0999999046326,918,917.1999998092651,True,u,123783.89999985695,1423.1999998092651,1669830448110,1424,HRV,HRV_0077,2022-11-30 17:50:43
66,"[{'imgObject': {}, 'id': 'cocktailshrimp', 'src': '/static/foodstim60/cocktailshrimp.jpg', 'key': 'u', 'origWidth': 410, 'origHeight': 410, 'width': 410, 'height': 410, 'widthPercent': 0.45, 'rescaleHeight': False, 'trialN': 66, 'loaded': True, 'loadedTime': 3065.899999856949, 'positionName': 'LEFT', 'positionCoords': [511.6, 335], 'bid': 9.41}, {'imgObject': {}, 'id': 'kiwi', 'src': '/static/foodstim60/kiwi.jpg', 'key': 'i', 'origWidth': 410, 'origHeight': 410, 'width': 410, 'height': 410, 'widthPercent': 0.45, 'rescaleHeight': False, 'trialN': 66, 'loaded': True, 'loadedTime': 2469.5, 'positionName': 'RIGHT', 'positionCoords': [998.4, 335], 'bid': 8.1}]",123784.09999990463,1669830448110,cocktailshrimp,kiwi,9.41,8.1,-1.3100000000000005,cocktailshrimp,877.0,878,877.7000000476837,True,u,125170.20000004768,1386.1000001430511,1669830449496,1386,HRV,HRV_0077,2022-11-30 17:50:43
67,"[{'imgObject': {}, 'id': 'raisin bran w milk', 'src': '/static/foodstim60/raisin bran w milk.jpg', 'key': 'u', 'origWidth': 411, 'origHeight': 411, 'width': 411, 'height': 411, 'widthPercent': 0.45, 'rescaleHeight': False, 'trialN': 67, 'loaded': True, 'loadedTime': 2895.5, 'positionName': 'LEFT', 'positionCoords': [510.6, 334.5], 'bid': 2.31}, {'imgObject': {}, 'id': 'Tribe humus pita', 'src': '/static/foodstim60/Tribe humus pita.jpg', 'key': 'i', 'origWidth': 411, 'origHeight': 411, 'width': 411, 'height': 411, 'widthPercent': 0.45, 'rescaleHeight': False, 'trialN': 67, 'loaded': True, 'loadedTime': 3073, 'positionName': 'RIGHT', 'positionCoords': [998.4, 334.5], 'bid': 7.28}]",125170.89999985695,1669830449497,raisin bran w milk,Tribe humus pita,2.31,7.28,4.970000000000001,Tribe humus pita,921.5,922,922.2000000476837,True,i,126599.39999985695,1428.5,1669830450925,1428,HRV,HRV_0077,2022-11-30 17:50:43
68,"[{'imgObject': {}, 'id': 'granola w milk', 'src': '/static/foodstim60/granola w milk.jpg', 'key': 'u', 'origWidth': 410, 'origHeight': 410, 'width': 410, 'height': 410, 'widthPercent': 0.45, 'rescaleHeight': False, 'trialN': 68, 'loaded': True, 'loadedTime': 2712.5, 'positionName': 'LEFT', 'positionCoords': [511.6, 335], 'bid': 1.84}, {'imgObject': {}, 'id': 'bagel plain', 'src': '/static/foodstim60/bagel plain.jpg', 'key': 'i', 'origWidth': 410, 'origHeight': 410, 'width': 410, 'height': 410, 'widthPercent': 0.45, 'rescaleHeight': False, 'trialN': 68, 'loaded': True, 'loadedTime': 3107.399999856949, 'positionName': 'RIGHT', 'positionCoords': [998.4, 335], 'bid': 1.21}]",126599.59999990463,1669830450925,granola w milk,bagel plain,1.84,1.21,-0.6300000000000001,bagel plain,1133.4000000953674,1134,1133.9000000953674,True,i,128239.79999995232,1640.2000000476837,1669830452566,1641,HRV,HRV_0077,2022-11-30 17:50:43
69,"[{'imgObject': {}, 'id': 'kiwi', 'src': '/static/foodstim60/kiwi.jpg', 'key': 'u', 'origWidth': 410, 'origHeight': 410, 'width': 410, 'height': 410, 'widthPercent': 0.45, 'rescaleHeight': False, 'trialN': 69, 'loaded': True, 'loadedTime': 2466.7999999523163, 'positionName': 'LEFT', 'positionCoords': [511.6, 335], 'bid': 8.1}, {'imgObject': {}, 'id': 'avocado', 'src': '/static/foodstim60/avocado.jpg', 'key': 'i', 'origWidth': 409, 'origHeight': 409, 'width': 409, 'height': 409, 'widthPercent': 0.45, 'rescaleHeight': False, 'trialN': 69, 'loaded': True, 'loadedTime': 2616.2000000476837, 'positionName': 'RIGHT', 'positionCoords': [998.4, 335.5], 'bid': 8.03}]",128240.0,1669830452566,kiwi,avocado,8.1,8.03,-0.07000000000000028,kiwi,1124.5,1125,1125.2000000476837,True,u,129872.5,1632.5,1669830454198,1632,HRV,HRV_0077,2022-11-30 17:50:43
70,"[{'imgObject': {}, 'id': 'Tribe humus pita', 'src': '/static/foodstim60/Tribe humus pita.jpg', 'key': 'u', 'origWidth': 411, 'origHeight': 411, 'width': 411, 'height': 411, 'widthPercent': 0.45, 'rescaleHeight': False, 'trialN': 70, 'loaded': True, 'loadedTime': 3074.0999999046326, 'positionName': 'LEFT', 'positionCoords': [510.6, 334.5], 'bid': 7.28}, {'imgObject': {}, 'id': 'turkey sandwich', 'src': '/static/foodstim60/turkey sandwich.jpg', 'key': 'i', 'origWidth': 409, 'origHeight': 409, 'width': 409, 'height': 409, 'widthPercent': 0.45, 'rescaleHeight': False, 'trialN': 70, 'loaded': True, 'loadedTime': 2818.2999999523163, 'positionName': 'RIGHT', 'positionCoords': [998.4, 335.5], 'bid': 7.22}]",129872.70000004768,1669830454199,Tribe humus pita,turkey sandwich,7.28,7.22,-0.0600000000000005,Tribe humus pita,981.5999999046326,982,982.1999998092651,True,u,131360.20000004768,1487.5,1669830455686,1487,HRV,HRV_0077,2022-11-30 17:50:43
71,"[{'imgObject': {}, 'id': 'pear', 'src': '/static/foodstim60/pear.jpg', 'key': 'u', 'origWidth': 411, 'origHeight': 410, 'width': 411, 'height': 410, 'widthPercent': 0.45, 'rescaleHeight': False, 'trialN': 71, 'loaded': True, 'loadedTime': 2668.0999999046326, 'positionName': 'LEFT', 'positionCoords': [510.6, 335], 'bid': 7.05}, {'imgObject': {}, 'id': 'roastedpotatoes', 'src': '/static/foodstim60/roastedpotatoes.jpg', 'key': 'i', 'origWidth': 409, 'origHeight': 410, 'width': 409, 'height': 410, 'widthPercent': 0.45, 'rescaleHeight': False, 'trialN': 71, 'loaded': True, 'loadedTime': 3038, 'positionName': 'RIGHT', 'positionCoords': [998.4, 335], 'bid': 5.5600000000000005}]",131360.39999985695,1669830455686,pear,roastedpotatoes,7.05,5.5600000000000005,-1.4899999999999993,pear,1066.9000000953674,1067,1067.2000000476837,True,u,132935.70000004768,1575.3000001907349,1669830457261,1575,HRV,HRV_0077,2022-11-30 17:50:43
72,"[{'imgObject': {}, 'id': 'bagel plain', 'src': '/static/foodstim60/bagel plain.jpg', 'key': 'u', 'origWidth': 410, 'origHeight': 410, 'width': 410, 'height': 410, 'widthPercent': 0.45, 'rescaleHeight': False, 'trialN': 72, 'loaded': True, 'loadedTime': 3106.2999999523163, 'positionName': 'LEFT', 'positionCoords': [511.6, 335], 'bid': 1.21}, {'imgObject': {}, 'id': 'chickenfingers', 'src': '/static/foodstim60/chickenfingers.jpg', 'key': 'i', 'origWidth': 410, 'origHeight': 410, 'width': 410, 'height': 410, 'widthPercent': 0.45, 'rescaleHeight': False, 'trialN': 72, 'loaded': True, 'loadedTime': 2818.5999999046326, 'positionName': 'RIGHT', 'positionCoords': [998.4, 335], 'bid': 6.61}]",132936.0,1669830457262,bagel plain,chickenfingers,1.21,6.61,5.4,chickenfingers,823.7000000476837,824,824.5,True,i,134264.0,1328.0,1669830458590,1328,HRV,HRV_0077,2022-11-30 17:50:43
73,"[{'imgObject': {}, 'id': 'fruitsalad', 'src': '/static/foodstim60/fruitsalad.jpg', 'key': 'u', 'origWidth': 410, 'origHeight': 410, 'width': 410, 'height': 410, 'widthPercent': 0.45, 'rescaleHeight': False, 'trialN': 73, 'loaded': True, 'loadedTime': 3103.899999856949, 'positionName': 'LEFT', 'positionCoords': [511.6, 335], 'bid': 9.89}, {'imgObject': {}, 'id': 'apple slices', 'src': '/static/foodstim60/apple slices.jpg', 'key': 'i', 'origWidth': 409, 'origHeight': 410, 'width': 409, 'height': 410, 'widthPercent': 0.45, 'rescaleHeight': False, 'trialN': 73, 'loaded': True, 'loadedTime': 2699, 'positionName': 'RIGHT', 'positionCoords': [998.4, 335], 'bid': 9.17}]",134264.5,1669830458590,fruitsalad,apple slices,9.89,9.17,-0.7200000000000006,fruitsalad,605.5999999046326,607,606.5,True,u,135375.09999990463,1110.5999999046326,1669830459701,1111,HRV,HRV_0077,2022-11-30 17:50:43
74,"[{'imgObject': {}, 'id': 'ice cream sundae 002', 'src': '/static/foodstim60/ice cream sundae 002.jpg', 'key': 'u', 'origWidth': 409, 'origHeight': 409, 'width': 409, 'height': 409, 'widthPercent': 0.45, 'rescaleHeight': False, 'trialN': 74, 'loaded': True, 'loadedTime': 2474, 'positionName': 'LEFT', 'positionCoords': [512.6, 335.5], 'bid': 6.15}, {'imgObject': {}, 'id': 'Grapes', 'src': '/static/foodstim60/Grapes.jpg', 'key': 'i', 'origWidth': 411, 'origHeight': 411, 'width': 411, 'height': 411, 'widthPercent': 0.45, 'rescaleHeight': False, 'trialN': 74, 'loaded': True, 'loadedTime': 3020.7999999523163, 'positionName': 'RIGHT', 'positionCoords': [998.4, 334.5], 'bid': 6.55}]",135375.29999995232,1669830459701,ice cream sundae 002,Grapes,6.15,6.55,0.39999999999999947,Grapes,862.7000000476837,864,864.2999999523163,True,i,136743.89999985695,1368.5999999046326,1669830461070,1369,HRV,HRV_0077,2022-11-30 17:50:43
75,"[{'imgObject': {}, 'id': 'salad w chicken', 'src': '/static/foodstim60/salad w chicken.jpg', 'key': 'u', 'origWidth': 411, 'origHeight': 411, 'width': 411, 'height': 411, 'widthPercent': 0.45, 'rescaleHeight': False, 'trialN': 75, 'loaded': True, 'loadedTime': 3015.5, 'positionName': 'LEFT', 'positionCoords': [510.6, 334.5], 'bid': 8}, {'imgObject': {}, 'id': 'hashbrowns', 'src': '/static/foodstim60/hashbrowns.jpg', 'key': 'i', 'origWidth': 411, 'origHeight': 410, 'width': 411, 'height': 410, 'widthPercent': 0.45, 'rescaleHeight': False, 'trialN': 75, 'loaded': True, 'loadedTime': 2936.2000000476837, 'positionName': 'RIGHT', 'positionCoords': [998.4, 335], 'bid': 2.94}]",136744.20000004768,1669830461070,salad w chicken,hashbrowns,8.0,2.94,-5.0600000000000005,salad w chicken,1565.1999998092651,1566,1565.8999998569489,True,u,138816.70000004768,2072.5,1669830463142,2072,HRV,HRV_0077,2022-11-30 17:50:43
76,"[{'imgObject': {}, 'id': 'edamame', 'src': '/static/foodstim60/edamame.jpg', 'key': 'u', 'origWidth': 409, 'origHeight': 410, 'width': 409, 'height': 410, 'widthPercent': 0.45, 'rescaleHeight': False, 'trialN': 76, 'loaded': True, 'loadedTime': 3088.5999999046326, 'positionName': 'LEFT', 'positionCoords': [512.6, 335], 'bid': 4.3}, {'imgObject': {}, 'id': 'granola w milk', 'src': '/static/foodstim60/granola w milk.jpg', 'key': 'i', 'origWidth': 410, 'origHeight': 410, 'width': 410, 'height': 410, 'widthPercent': 0.45, 'rescaleHeight': False, 'trialN': 76, 'loaded': True, 'loadedTime': 2711.7000000476837, 'positionName': 'RIGHT', 'positionCoords': [998.4, 335], 'bid': 1.84}]",138817.29999995232,1669830463143,edamame,granola w milk,4.3,1.84,-2.46,edamame,1956.5,1958,1957.5999999046326,True,u,141279.39999985695,2462.0999999046326,1669830465605,2462,HRV,HRV_0077,2022-11-30 17:50:43
77,"[{'imgObject': {}, 'id': 'strawberries', 'src': '/static/foodstim60/strawberries.jpg', 'key': 'u', 'origWidth': 410, 'origHeight': 410, 'width': 410, 'height': 410, 'widthPercent': 0.45, 'rescaleHeight': False, 'trialN': 77, 'loaded': True, 'loadedTime': 3104.2999999523163, 'positionName': 'LEFT', 'positionCoords': [511.6, 335], 'bid': 9.86}, {'imgObject': {}, 'id': 'salad w chicken', 'src': '/static/foodstim60/salad w chicken.jpg', 'key': 'i', 'origWidth': 411, 'origHeight': 411, 'width': 411, 'height': 411, 'widthPercent': 0.45, 'rescaleHeight': False, 'trialN': 77, 'loaded': True, 'loadedTime': 3015.7000000476837, 'positionName': 'RIGHT', 'positionCoords': [998.4, 334.5], 'bid': 8}]",141279.70000004768,1669830465605,strawberries,salad w chicken,9.86,8.0,-1.8599999999999994,strawberries,775.6999998092651,777,776.5,True,u,142559.5,1279.7999999523163,1669830466885,1280,HRV,HRV_0077,2022-11-30 17:50:43
78,"[{'imgObject': {}, 'id': 'fried eggs', 'src': '/static/foodstim60/fried eggs.jpg', 'key': 'u', 'origWidth': 410, 'origHeight': 410, 'width': 410, 'height': 410, 'widthPercent': 0.45, 'rescaleHeight': False, 'trialN': 78, 'loaded': True, 'loadedTime': 2943.5, 'positionName': 'LEFT', 'positionCoords': [511.6, 335], 'bid': 5.65}, {'imgObject': {}, 'id': 'turkey sandwich', 'src': '/static/foodstim60/turkey sandwich.jpg', 'key': 'i', 'origWidth': 409, 'origHeight': 409, 'width': 409, 'height': 409, 'widthPercent': 0.45, 'rescaleHeight': False, 'trialN': 78, 'loaded': True, 'loadedTime': 2726.7000000476837, 'positionName': 'RIGHT', 'positionCoords': [998.4, 335.5], 'bid': 7.22}]",142559.59999990463,1669830466885,fried eggs,turkey sandwich,5.65,7.22,1.5699999999999994,fried eggs,933.1000001430511,934,933.7999999523163,True,u,143999.79999995232,1440.2000000476837,1669830468326,1441,HRV,HRV_0077,2022-11-30 17:50:43
79,"[{'imgObject': {}, 'id': 'shreddedwheatwithmilk', 'src': '/static/foodstim60/shreddedwheatwithmilk.jpg', 'key': 'u', 'origWidth': 410, 'origHeight': 410, 'width': 410, 'height': 410, 'widthPercent': 0.45, 'rescaleHeight': False, 'trialN': 79, 'loaded': True, 'loadedTime': 2657.2999999523163, 'positionName': 'LEFT', 'positionCoords': [511.6, 335], 'bid': 1.83}, {'imgObject': {}, 'id': 'mango', 'src': '/static/foodstim60/mango.jpg', 'key': 'i', 'origWidth': 411, 'origHeight': 411, 'width': 411, 'height': 411, 'widthPercent': 0.45, 'rescaleHeight': False, 'trialN': 79, 'loaded': True, 'loadedTime': 2849.399999856949, 'positionName': 'RIGHT', 'positionCoords': [998.4, 334.5], 'bid': 5.32}]",144000.0,1669830468326,shreddedwheatwithmilk,mango,1.83,5.32,3.49,mango,788.2999999523163,789,789.3999998569489,True,i,145296.20000004768,1296.2000000476837,1669830469622,1296,HRV,HRV_0077,2022-11-30 17:50:43
80,"[{'imgObject': {}, 'id': 'hotdog w must', 'src': '/static/foodstim60/hotdog w must.jpg', 'key': 'u', 'origWidth': 409, 'origHeight': 409, 'width': 409, 'height': 409, 'widthPercent': 0.45, 'rescaleHeight': False, 'trialN': 80, 'loaded': True, 'loadedTime': 2674, 'positionName': 'LEFT', 'positionCoords': [512.6, 335.5], 'bid': 3.37}, {'imgObject': {}, 'id': 'hashbrowns', 'src': '/static/foodstim60/hashbrowns.jpg', 'key': 'i', 'origWidth': 411, 'origHeight': 410, 'width': 411, 'height': 410, 'widthPercent': 0.45, 'rescaleHeight': False, 'trialN': 80, 'loaded': True, 'loadedTime': 2938.0999999046326, 'positionName': 'RIGHT', 'positionCoords': [998.4, 335], 'bid': 2.94}]",145296.39999985695,1669830469622,hotdog w must,hashbrowns,3.37,2.94,-0.43000000000000016,hotdog w must,828.7000000476837,830,829.5,True,u,146632.70000004768,1336.3000001907349,1669830470958,1336,HRV,HRV_0077,2022-11-30 17:50:43
81,"[{'imgObject': {}, 'id': 'lox', 'src': '/static/foodstim60/lox.jpg', 'key': 'u', 'origWidth': 410, 'origHeight': 411, 'width': 410, 'height': 411, 'widthPercent': 0.45, 'rescaleHeight': False, 'trialN': 81, 'loaded': True, 'loadedTime': 2901.0999999046326, 'positionName': 'LEFT', 'positionCoords': [511.6, 334.5], 'bid': 7.94}, {'imgObject': {}, 'id': 'raspberries', 'src': '/static/foodstim60/raspberries.jpg', 'key': 'i', 'origWidth': 411, 'origHeight': 411, 'width': 411, 'height': 411, 'widthPercent': 0.45, 'rescaleHeight': False, 'trialN': 81, 'loaded': True, 'loadedTime': 3091.2999999523163, 'positionName': 'RIGHT', 'positionCoords': [998.4, 334.5], 'bid': 9.75}]",146632.89999985695,1669830470959,lox,raspberries,7.94,9.75,1.8099999999999996,raspberries,896.6000001430511,898,898.6000001430511,True,i,148040.59999990463,1407.7000000476837,1669830472366,1407,HRV,HRV_0077,2022-11-30 17:50:43
82,"[{'imgObject': {}, 'id': 'kiwi', 'src': '/static/foodstim60/kiwi.jpg', 'key': 'u', 'origWidth': 410, 'origHeight': 410, 'width': 410, 'height': 410, 'widthPercent': 0.45, 'rescaleHeight': False, 'trialN': 82, 'loaded': True, 'loadedTime': 2472.7000000476837, 'positionName': 'LEFT', 'positionCoords': [511.6, 335], 'bid': 8.1}, {'imgObject': {}, 'id': 'hotdog w must', 'src': '/static/foodstim60/hotdog w must.jpg', 'key': 'i', 'origWidth': 409, 'origHeight': 409, 'width': 409, 'height': 409, 'widthPercent': 0.45, 'rescaleHeight': False, 'trialN': 82, 'loaded': True, 'loadedTime': 2675.899999856949, 'positionName': 'RIGHT', 'positionCoords': [998.4, 335.5], 'bid': 3.37}]",148040.89999985695,1669830472367,kiwi,hotdog w must,8.1,3.37,-4.7299999999999995,kiwi,755.8000001907349,757,756.9000000953674,True,u,149303.5,1262.6000001430511,1669830473629,1262,HRV,HRV_0077,2022-11-30 17:50:43
83,"[{'imgObject': {}, 'id': 'froot loops w milk', 'src': '/static/foodstim60/froot loops w milk.jpg', 'key': 'u', 'origWidth': 410, 'origHeight': 410, 'width': 410, 'height': 410, 'widthPercent': 0.45, 'rescaleHeight': False, 'trialN': 83, 'loaded': True, 'loadedTime': 2642.5999999046326, 'positionName': 'LEFT', 'positionCoords': [511.6, 335], 'bid': 1.76}, {'imgObject': {}, 'id': 'mashed potato', 'src': '/static/foodstim60/mashed potato.jpg', 'key': 'i', 'origWidth': 409, 'origHeight': 409, 'width': 409, 'height': 409, 'widthPercent': 0.45, 'rescaleHeight': False, 'trialN': 83, 'loaded': True, 'loadedTime': 3177.2999999523163, 'positionName': 'RIGHT', 'positionCoords': [998.4, 335.5], 'bid': 5.0600000000000005}]",149303.79999995232,1669830473630,froot loops w milk,mashed potato,1.76,5.0600000000000005,3.3000000000000007,mashed potato,1060.5,1061,1061.2000000476837,True,i,150871.29999995232,1567.5,1669830475197,1567,HRV,HRV_0077,2022-11-30 17:50:43
84,"[{'imgObject': {}, 'id': 'turkey sandwich', 'src': '/static/foodstim60/turkey sandwich.jpg', 'key': 'u', 'origWidth': 409, 'origHeight': 409, 'width': 409, 'height': 409, 'widthPercent': 0.45, 'rescaleHeight': False, 'trialN': 84, 'loaded': True, 'loadedTime': 2818.5, 'positionName': 'LEFT', 'positionCoords': [512.6, 335.5], 'bid': 7.22}, {'imgObject': {}, 'id': 'avocado', 'src': '/static/foodstim60/avocado.jpg', 'key': 'i', 'origWidth': 409, 'origHeight': 409, 'width': 409, 'height': 409, 'widthPercent': 0.45, 'rescaleHeight': False, 'trialN': 84, 'loaded': True, 'loadedTime': 2535.899999856949, 'positionName': 'RIGHT', 'positionCoords': [998.4, 335.5], 'bid': 8.03}]",150871.5,1669830475197,turkey sandwich,avocado,7.22,8.03,0.8099999999999996,avocado,1229.7999999523163,1231,1230.7000000476837,True,i,152607.59999990463,1736.0999999046326,1669830476933,1736,HRV,HRV_0077,2022-11-30 17:50:43
85,"[{'imgObject': {}, 'id': 'Tribe humus pita', 'src': '/static/foodstim60/Tribe humus pita.jpg', 'key': 'u', 'origWidth': 411, 'origHeight': 411, 'width': 411, 'height': 411, 'widthPercent': 0.45, 'rescaleHeight': False, 'trialN': 85, 'loaded': True, 'loadedTime': 3074.899999856949, 'positionName': 'LEFT', 'positionCoords': [510.6, 334.5], 'bid': 7.28}, {'imgObject': {}, 'id': 'ice cream sundae 002', 'src': '/static/foodstim60/ice cream sundae 002.jpg', 'key': 'i', 'origWidth': 409, 'origHeight': 409, 'width': 409, 'height': 409, 'widthPercent': 0.45, 'rescaleHeight': False, 'trialN': 85, 'loaded': True, 'loadedTime': 2475.399999856949, 'positionName': 'RIGHT', 'positionCoords': [998.4, 335.5], 'bid': 6.15}]",152608.20000004768,1669830476934,Tribe humus pita,ice cream sundae 002,7.28,6.15,-1.13,Tribe humus pita,756.0999999046326,757,756.6999998092651,True,u,153871.39999985695,1263.1999998092651,1669830478197,1263,HRV,HRV_0077,2022-11-30 17:50:43
86,"[{'imgObject': {}, 'id': 'salmon', 'src': '/static/foodstim60/salmon.jpg', 'key': 'u', 'origWidth': 410, 'origHeight': 409, 'width': 410, 'height': 409, 'widthPercent': 0.45, 'rescaleHeight': False, 'trialN': 86, 'loaded': True, 'loadedTime': 3107.899999856949, 'positionName': 'LEFT', 'positionCoords': [511.6, 335.5], 'bid': 8.9}, {'imgObject': {}, 'id': 'sushi w_condiments', 'src': '/static/foodstim60/sushi w_condiments.jpg', 'key': 'i', 'origWidth': 410, 'origHeight': 410, 'width': 410, 'height': 410, 'widthPercent': 0.45, 'rescaleHeight': False, 'trialN': 86, 'loaded': True, 'loadedTime': 2884, 'positionName': 'RIGHT', 'positionCoords': [998.4, 335], 'bid': 9}]",153872.20000004768,1669830478198,salmon,sushi w_condiments,8.9,9.0,0.09999999999999964,salmon,707.3999998569489,708,707.7999999523163,True,u,155088.70000004768,1216.5,1669830479415,1217,HRV,HRV_0077,2022-11-30 17:50:43
87,"[{'imgObject': {}, 'id': 'eggsalad', 'src': '/static/foodstim60/eggsalad.jpg', 'key': 'u', 'origWidth': 410, 'origHeight': 409, 'width': 410, 'height': 409, 'widthPercent': 0.45, 'rescaleHeight': False, 'trialN': 87, 'loaded': True, 'loadedTime': 2482.5999999046326, 'positionName': 'LEFT', 'positionCoords': [511.6, 335.5], 'bid': 6.390000000000001}, {'imgObject': {}, 'id': 'Grapes', 'src': '/static/foodstim60/Grapes.jpg', 'key': 'i', 'origWidth': 411, 'origHeight': 411, 'width': 411, 'height': 411, 'widthPercent': 0.45, 'rescaleHeight': False, 'trialN': 87, 'loaded': True, 'loadedTime': 3016.399999856949, 'positionName': 'RIGHT', 'positionCoords': [998.4, 334.5], 'bid': 6.55}]",155088.89999985695,1669830479415,eggsalad,Grapes,6.390000000000001,6.55,0.15999999999999925,eggsalad,1756.3000001907349,1757,1757.2000000476837,True,u,157351.29999995232,2262.4000000953674,1669830481678,2263,HRV,HRV_0077,2022-11-30 17:50:43
88,"[{'imgObject': {}, 'id': 'baked potato', 'src': '/static/foodstim60/baked potato.jpg', 'key': 'u', 'origWidth': 409, 'origHeight': 410, 'width': 409, 'height': 410, 'widthPercent': 0.45, 'rescaleHeight': False, 'trialN': 88, 'loaded': True, 'loadedTime': 3047.399999856949, 'positionName': 'LEFT', 'positionCoords': [512.6, 335], 'bid': 3.15}, {'imgObject': {}, 'id': 'ice cream sundae 002', 'src': '/static/foodstim60/ice cream sundae 002.jpg', 'key': 'i', 'origWidth': 409, 'origHeight': 409, 'width': 409, 'height': 409, 'widthPercent': 0.45, 'rescaleHeight': False, 'trialN': 88, 'loaded': True, 'loadedTime': 2477.0999999046326, 'positionName': 'RIGHT', 'positionCoords': [998.4, 335.5], 'bid': 6.15}]",157351.89999985695,1669830481678,baked potato,ice cream sundae 002,3.15,6.15,3.0000000000000004,ice cream sundae 002,1470.6000001430511,1471,1471.5,True,i,159328.0,1976.1000001430511,1669830483654,1976,HRV,HRV_0077,2022-11-30 17:50:43
89,"[{'imgObject': {}, 'id': 'blueberries', 'src': '/static/foodstim60/blueberries.jpg', 'key': 'u', 'origWidth': 411, 'origHeight': 411, 'width': 411, 'height': 411, 'widthPercent': 0.45, 'rescaleHeight': False, 'trialN': 89, 'loaded': True, 'loadedTime': 3098.7000000476837, 'positionName': 'LEFT', 'positionCoords': [510.6, 334.5], 'bid': 9.59}, {'imgObject': {}, 'id': 'strawberries', 'src': '/static/foodstim60/strawberries.jpg', 'key': 'i', 'origWidth': 410, 'origHeight': 410, 'width': 410, 'height': 410, 'widthPercent': 0.45, 'rescaleHeight': False, 'trialN': 89, 'loaded': True, 'loadedTime': 3106.2999999523163, 'positionName': 'RIGHT', 'positionCoords': [998.4, 335], 'bid': 9.86}]",159328.20000004768,1669830483654,blueberries,strawberries,9.59,9.86,0.2699999999999996,strawberries,1172.2999999523163,1173,1172.8999998569489,True,i,161007.89999985695,1679.6999998092651,1669830485334,1680,HRV,HRV_0077,2022-11-30 17:50:43
90,"[{'imgObject': {}, 'id': 'fried eggs', 'src': '/static/foodstim60/fried eggs.jpg', 'key': 'u', 'origWidth': 410, 'origHeight': 410, 'width': 410, 'height': 410, 'widthPercent': 0.45, 'rescaleHeight': False, 'trialN': 90, 'loaded': True, 'loadedTime': 2945.7999999523163, 'positionName': 'LEFT', 'positionCoords': [511.6, 335], 'bid': 5.65}, {'imgObject': {}, 'id': 'ice cream sundae 002', 'src': '/static/foodstim60/ice cream sundae 002.jpg', 'key': 'i', 'origWidth': 409, 'origHeight': 409, 'width': 409, 'height': 409, 'widthPercent': 0.45, 'rescaleHeight': False, 'trialN': 90, 'loaded': True, 'loadedTime': 2477.399999856949, 'positionName': 'RIGHT', 'positionCoords': [998.4, 335.5], 'bid': 6.15}]",163776.0,1669830488102,fried eggs,ice cream sundae 002,5.65,6.15,0.5,fried eggs,1695.7000000476837,1697,1696.7999999523163,True,u,165975.0,2199.0,1669830490301,2199,HRV,HRV_0077,2022-11-30 17:50:43
91,"[{'imgObject': {}, 'id': 'eggsalad', 'src': '/static/foodstim60/eggsalad.jpg', 'key': 'u', 'origWidth': 410, 'origHeight': 409, 'width': 410, 'height': 409, 'widthPercent': 0.45, 'rescaleHeight': False, 'trialN': 91, 'loaded': True, 'loadedTime': 2507.899999856949, 'positionName': 'LEFT', 'positionCoords': [511.6, 335.5], 'bid': 6.390000000000001}, {'imgObject': {}, 'id': 'cherry tomato', 'src': '/static/foodstim60/cherry tomato.jpg', 'key': 'i', 'origWidth': 410, 'origHeight': 410, 'width': 410, 'height': 410, 'widthPercent': 0.45, 'rescaleHeight': False, 'trialN': 91, 'loaded': True, 'loadedTime': 2673.2999999523163, 'positionName': 'RIGHT', 'positionCoords': [998.4, 335], 'bid': 0.78}]",165975.09999990463,1669830490301,eggsalad,cherry tomato,6.390000000000001,0.78,-5.61,eggsalad,780.5,781,780.9000000953674,True,u,167263.5,1288.4000000953674,1669830491590,1289,HRV,HRV_0077,2022-11-30 17:50:43
92,"[{'imgObject': {}, 'id': 'tacos', 'src': '/static/foodstim60/tacos.jpg', 'key': 'u', 'origWidth': 411, 'origHeight': 411, 'width': 411, 'height': 411, 'widthPercent': 0.45, 'rescaleHeight': False, 'trialN': 92, 'loaded': True, 'loadedTime': 3059.399999856949, 'positionName': 'LEFT', 'positionCoords': [510.6, 334.5], 'bid': 8.31}, {'imgObject': {}, 'id': 'kiwi', 'src': '/static/foodstim60/kiwi.jpg', 'key': 'i', 'origWidth': 410, 'origHeight': 410, 'width': 410, 'height': 410, 'widthPercent': 0.45, 'rescaleHeight': False, 'trialN': 92, 'loaded': True, 'loadedTime': 2471.7000000476837, 'positionName': 'RIGHT', 'positionCoords': [998.4, 335], 'bid': 8.1}]",167263.70000004768,1669830491590,tacos,kiwi,8.31,8.1,-0.21000000000000085,tacos,749.0,750,749.8999998569489,True,u,168520.09999990463,1256.3999998569489,1669830492846,1256,HRV,HRV_0077,2022-11-30 17:50:43
93,"[{'imgObject': {}, 'id': 'blueberries', 'src': '/static/foodstim60/blueberries.jpg', 'key': 'u', 'origWidth': 411, 'origHeight': 411, 'width': 411, 'height': 411, 'widthPercent': 0.45, 'rescaleHeight': False, 'trialN': 93, 'loaded': True, 'loadedTime': 3099.0999999046326, 'positionName': 'LEFT', 'positionCoords': [510.6, 334.5], 'bid': 9.59}, {'imgObject': {}, 'id': 'cantaloupe', 'src': '/static/foodstim60/cantaloupe.jpg', 'key': 'i', 'origWidth': 409, 'origHeight': 409, 'width': 409, 'height': 409, 'widthPercent': 0.45, 'rescaleHeight': False, 'trialN': 93, 'loaded': True, 'loadedTime': 3031.2999999523163, 'positionName': 'RIGHT', 'positionCoords': [998.4, 335.5], 'bid': 8.1}]",168520.29999995232,1669830492846,blueberries,cantaloupe,9.59,8.1,-1.4900000000000002,blueberries,756.2000000476837,757,757.0,True,u,169784.09999990463,1263.7999999523163,1669830494110,1264,HRV,HRV_0077,2022-11-30 17:50:43
94,"[{'imgObject': {}, 'id': 'kiwi', 'src': '/static/foodstim60/kiwi.jpg', 'key': 'u', 'origWidth': 410, 'origHeight': 410, 'width': 410, 'height': 410, 'widthPercent': 0.45, 'rescaleHeight': False, 'trialN': 94, 'loaded': True, 'loadedTime': 2470.5, 'positionName': 'LEFT', 'positionCoords': [511.6, 335], 'bid': 8.1}, {'imgObject': {}, 'id': 'Tribe humus pita', 'src': '/static/foodstim60/Tribe humus pita.jpg', 'key': 'i', 'origWidth': 411, 'origHeight': 411, 'width': 411, 'height': 411, 'widthPercent': 0.45, 'rescaleHeight': False, 'trialN': 94, 'loaded': True, 'loadedTime': 3069.5, 'positionName': 'RIGHT', 'positionCoords': [998.4, 334.5], 'bid': 7.28}]",169784.29999995232,1669830494110,kiwi,Tribe humus pita,8.1,7.28,-0.8199999999999994,Tribe humus pita,1012.5999999046326,1015,1015.0,True,i,171304.29999995232,1520.0,1669830495631,1521,HRV,HRV_0077,2022-11-30 17:50:43
95,"[{'imgObject': {}, 'id': 'fruitsalad', 'src': '/static/foodstim60/fruitsalad.jpg', 'key': 'u', 'origWidth': 410, 'origHeight': 410, 'width': 410, 'height': 410, 'widthPercent': 0.45, 'rescaleHeight': False, 'trialN': 95, 'loaded': True, 'loadedTime': 3100, 'positionName': 'LEFT', 'positionCoords': [511.6, 335], 'bid': 9.89}, {'imgObject': {}, 'id': 'ice cream sundae 002', 'src': '/static/foodstim60/ice cream sundae 002.jpg', 'key': 'i', 'origWidth': 409, 'origHeight': 409, 'width': 409, 'height': 409, 'widthPercent': 0.45, 'rescaleHeight': False, 'trialN': 95, 'loaded': True, 'loadedTime': 2476.7000000476837, 'positionName': 'RIGHT', 'positionCoords': [998.4, 335.5], 'bid': 6.15}]",171304.59999990463,1669830495631,fruitsalad,ice cream sundae 002,9.89,6.15,-3.74,fruitsalad,751.5,754,754.2000000476837,True,u,172560.79999995232,1256.2000000476837,1669830496887,1256,HRV,HRV_0077,2022-11-30 17:50:43
96,"[{'imgObject': {}, 'id': 'seaweed', 'src': '/static/foodstim60/seaweed.jpg', 'key': 'u', 'origWidth': 410, 'origHeight': 410, 'width': 410, 'height': 410, 'widthPercent': 0.45, 'rescaleHeight': False, 'trialN': 96, 'loaded': True, 'loadedTime': 3168.899999856949, 'positionName': 'LEFT', 'positionCoords': [511.6, 335], 'bid': 0.85}, {'imgObject': {}, 'id': 'shreddedwheatwithmilk', 'src': '/static/foodstim60/shreddedwheatwithmilk.jpg', 'key': 'i', 'origWidth': 410, 'origHeight': 410, 'width': 410, 'height': 410, 'widthPercent': 0.45, 'rescaleHeight': False, 'trialN': 96, 'loaded': True, 'loadedTime': 2652.7999999523163, 'positionName': 'RIGHT', 'positionCoords': [998.4, 335], 'bid': 1.83}]",172561.70000004768,1669830496888,seaweed,shreddedwheatwithmilk,0.85,1.83,0.9800000000000001,shreddedwheatwithmilk,1236.6999998092651,1237,1237.5,True,i,174304.79999995232,1743.0999999046326,1669830498631,1743,HRV,HRV_0077,2022-11-30 17:50:43
97,"[{'imgObject': {}, 'id': 'cheerios', 'src': '/static/foodstim60/cheerios.jpg', 'key': 'u', 'origWidth': 409, 'origHeight': 410, 'width': 409, 'height': 410, 'widthPercent': 0.45, 'rescaleHeight': False, 'trialN': 97, 'loaded': True, 'loadedTime': 2927.399999856949, 'positionName': 'LEFT', 'positionCoords': [512.6, 335], 'bid': 1.64}, {'imgObject': {}, 'id': 'froot loops w milk', 'src': '/static/foodstim60/froot loops w milk.jpg', 'key': 'i', 'origWidth': 410, 'origHeight': 410, 'width': 410, 'height': 410, 'widthPercent': 0.45, 'rescaleHeight': False, 'trialN': 97, 'loaded': True, 'loadedTime': 2648.5, 'positionName': 'RIGHT', 'positionCoords': [998.4, 335], 'bid': 1.76}]",174305.20000004768,1669830498631,cheerios,froot loops w milk,1.64,1.76,0.1200000000000001,froot loops w milk,899.2999999523163,900,900.0,True,i,175711.29999995232,1406.0999999046326,1669830500037,1406,HRV,HRV_0077,2022-11-30 17:50:43
98,"[{'imgObject': {}, 'id': 'sushi w_condiments', 'src': '/static/foodstim60/sushi w_condiments.jpg', 'key': 'u', 'origWidth': 410, 'origHeight': 410, 'width': 410, 'height': 410, 'widthPercent': 0.45, 'rescaleHeight': False, 'trialN': 98, 'loaded': True, 'loadedTime': 2881.2999999523163, 'positionName': 'LEFT', 'positionCoords': [511.6, 335], 'bid': 9}, {'imgObject': {}, 'id': 'raspberries', 'src': '/static/foodstim60/raspberries.jpg', 'key': 'i', 'origWidth': 411, 'origHeight': 411, 'width': 411, 'height': 411, 'widthPercent': 0.45, 'rescaleHeight': False, 'trialN': 98, 'loaded': True, 'loadedTime': 3092.0999999046326, 'positionName': 'RIGHT', 'positionCoords': [998.4, 334.5], 'bid': 9.75}]",175711.70000004768,1669830500038,sushi w_condiments,raspberries,9.0,9.75,0.75,sushi w_condiments,764.5999999046326,765,765.2999999523163,True,u,176984.29999995232,1272.5999999046326,1669830501310,1272,HRV,HRV_0077,2022-11-30 17:50:43
99,"[{'imgObject': {}, 'id': 'banana', 'src': '/static/foodstim60/banana.jpg', 'key': 'u', 'origWidth': 410, 'origHeight': 410, 'width': 410, 'height': 410, 'widthPercent': 0.45, 'rescaleHeight': False, 'trialN': 99, 'loaded': True, 'loadedTime': 3075, 'positionName': 'LEFT', 'positionCoords': [511.6, 335], 'bid': 5.42}, {'imgObject': {}, 'id': 'burrito', 'src': '/static/foodstim60/burrito.jpg', 'key': 'i', 'origWidth': 410, 'origHeight': 410, 'width': 410, 'height': 410, 'widthPercent': 0.45, 'rescaleHeight': False, 'trialN': 99, 'loaded': True, 'loadedTime': 2661.7000000476837, 'positionName': 'RIGHT', 'positionCoords': [998.4, 335], 'bid': 6.890000000000001}]",176987.39999985695,1669830501314,banana,burrito,5.42,6.890000000000001,1.4700000000000006,burrito,1169.0,1169,1169.7000000476837,True,i,178659.5,1672.1000001430511,1669830502986,1672,HRV,HRV_0077,2022-11-30 17:50:43
100,"[{'imgObject': {}, 'id': 'avocado', 'src': '/static/foodstim60/avocado.jpg', 'key': 'u', 'origWidth': 409, 'origHeight': 409, 'width': 409, 'height': 409, 'widthPercent': 0.45, 'rescaleHeight': False, 'trialN': 100, 'loaded': True, 'loadedTime': 2537, 'positionName': 'LEFT', 'positionCoords': [512.6, 335.5], 'bid': 8.03}, {'imgObject': {}, 'id': 'fruitsalad', 'src': '/static/foodstim60/fruitsalad.jpg', 'key': 'i', 'origWidth': 410, 'origHeight': 410, 'width': 410, 'height': 410, 'widthPercent': 0.45, 'rescaleHeight': False, 'trialN': 100, 'loaded': True, 'loadedTime': 3104, 'positionName': 'RIGHT', 'positionCoords': [998.4, 335], 'bid': 9.89}]",178659.59999990463,1669830502986,avocado,fruitsalad,8.03,9.89,1.8600000000000012,fruitsalad,808.9000000953674,810,809.7999999523163,True,i,179976.0,1316.4000000953674,1669830504302,1316,HRV,HRV_0077,2022-11-30 17:50:43
101,"[{'imgObject': {}, 'id': 'yogurt no spoon', 'src': '/static/foodstim60/yogurt no spoon.jpg', 'key': 'u', 'origWidth': 411, 'origHeight': 410, 'width': 411, 'height': 410, 'widthPercent': 0.45, 'rescaleHeight': False, 'trialN': 101, 'loaded': True, 'loadedTime': 2679.399999856949, 'positionName': 'LEFT', 'positionCoords': [510.6, 335], 'bid': 9.14}, {'imgObject': {}, 'id': 'steak', 'src': '/static/foodstim60/steak.jpg', 'key': 'i', 'origWidth': 410, 'origHeight': 410, 'width': 410, 'height': 410, 'widthPercent': 0.45, 'rescaleHeight': False, 'trialN': 101, 'loaded': True, 'loadedTime': 2522.5999999046326, 'positionName': 'RIGHT', 'positionCoords': [998.4, 335], 'bid': 7.11}]",179976.29999995232,1669830504302,yogurt no spoon,steak,9.14,7.11,-2.0300000000000002,yogurt no spoon,859.2000000476837,860,859.5,True,u,181344.79999995232,1368.5,1669830505671,1369,HRV,HRV_0077,2022-11-30 17:50:43
102,"[{'imgObject': {}, 'id': 'sweetpotato', 'src': '/static/foodstim60/sweetpotato.jpg', 'key': 'u', 'origWidth': 410, 'origHeight': 410, 'width': 410, 'height': 410, 'widthPercent': 0.45, 'rescaleHeight': False, 'trialN': 102, 'loaded': True, 'loadedTime': 3179.2000000476837, 'positionName': 'LEFT', 'positionCoords': [511.6, 335], 'bid': 2.61}, {'imgObject': {}, 'id': 'froot loops w milk', 'src': '/static/foodstim60/froot loops w milk.jpg', 'key': 'i', 'origWidth': 410, 'origHeight': 410, 'width': 410, 'height': 410, 'widthPercent': 0.45, 'rescaleHeight': False, 'trialN': 102, 'loaded': True, 'loadedTime': 2638.399999856949, 'positionName': 'RIGHT', 'positionCoords': [998.4, 335], 'bid': 1.76}]",181345.0,1669830505671,sweetpotato,froot loops w milk,2.61,1.76,-0.8499999999999999,froot loops w milk,748.7000000476837,750,749.3999998569489,True,i,182599.09999990463,1254.0999999046326,1669830506925,1254,HRV,HRV_0077,2022-11-30 17:50:43
103,"[{'imgObject': {}, 'id': 'grilled chicken strips', 'src': '/static/foodstim60/grilled chicken strips.jpg', 'key': 'u', 'origWidth': 410, 'origHeight': 411, 'width': 410, 'height': 411, 'widthPercent': 0.45, 'rescaleHeight': False, 'trialN': 103, 'loaded': True, 'loadedTime': 3013.7999999523163, 'positionName': 'LEFT', 'positionCoords': [511.6, 334.5], 'bid': 8.68}, {'imgObject': {}, 'id': 'strawberries', 'src': '/static/foodstim60/strawberries.jpg', 'key': 'i', 'origWidth': 410, 'origHeight': 410, 'width': 410, 'height': 410, 'widthPercent': 0.45, 'rescaleHeight': False, 'trialN': 103, 'loaded': True, 'loadedTime': 3106.2000000476837, 'positionName': 'RIGHT', 'positionCoords': [998.4, 335], 'bid': 9.86}]",182599.29999995232,1669830506925,grilled chicken strips,strawberries,8.68,9.86,1.1799999999999997,strawberries,1063.0999999046326,1066,1065.5999999046326,True,i,184167.59999990463,1568.2999999523163,1669830508494,1569,HRV,HRV_0077,2022-11-30 17:50:43
104,"[{'imgObject': {}, 'id': 'eggsalad', 'src': '/static/foodstim60/eggsalad.jpg', 'key': 'u', 'origWidth': 410, 'origHeight': 409, 'width': 410, 'height': 409, 'widthPercent': 0.45, 'rescaleHeight': False, 'trialN': 104, 'loaded': True, 'loadedTime': 2480.899999856949, 'positionName': 'LEFT', 'positionCoords': [511.6, 335.5], 'bid': 6.390000000000001}, {'imgObject': {}, 'id': 'banana', 'src': '/static/foodstim60/banana.jpg', 'key': 'i', 'origWidth': 410, 'origHeight': 410, 'width': 410, 'height': 410, 'widthPercent': 0.45, 'rescaleHeight': False, 'trialN': 104, 'loaded': True, 'loadedTime': 3076.899999856949, 'positionName': 'RIGHT', 'positionCoords': [998.4, 335], 'bid': 5.42}]",184168.0,1669830508494,eggsalad,banana,6.390000000000001,5.42,-0.9700000000000006,eggsalad,1613.5999999046326,1614,1614.3999998569489,True,u,186288.20000004768,2120.2000000476837,1669830510614,2120,HRV,HRV_0077,2022-11-30 17:50:43
105,"[{'imgObject': {}, 'id': 'eggsalad', 'src': '/static/foodstim60/eggsalad.jpg', 'key': 'u', 'origWidth': 410, 'origHeight': 409, 'width': 410, 'height': 409, 'widthPercent': 0.45, 'rescaleHeight': False, 'trialN': 105, 'loaded': True, 'loadedTime': 2481.5, 'positionName': 'LEFT', 'positionCoords': [511.6, 335.5], 'bid': 6.390000000000001}, {'imgObject': {}, 'id': 'mashed potato', 'src': '/static/foodstim60/mashed potato.jpg', 'key': 'i', 'origWidth': 409, 'origHeight': 409, 'width': 409, 'height': 409, 'widthPercent': 0.45, 'rescaleHeight': False, 'trialN': 105, 'loaded': True, 'loadedTime': 3177.5999999046326, 'positionName': 'RIGHT', 'positionCoords': [998.4, 335.5], 'bid': 5.0600000000000005}]",186288.5,1669830510615,eggsalad,mashed potato,6.390000000000001,5.0600000000000005,-1.33,mashed potato,3035.7000000476837,3036,3036.2999999523163,True,i,189837.70000004768,3549.2000000476837,1669830514164,3549,HRV,HRV_0077,2022-11-30 17:50:43
106,"[{'imgObject': {}, 'id': 'luckycharms', 'src': '/static/foodstim60/luckycharms.jpg', 'key': 'u', 'origWidth': 410, 'origHeight': 409, 'width': 410, 'height': 409, 'widthPercent': 0.45, 'rescaleHeight': False, 'trialN': 106, 'loaded': True, 'loadedTime': 3069.2999999523163, 'positionName': 'LEFT', 'positionCoords': [511.6, 335.5], 'bid': 1.82}, {'imgObject': {}, 'id': 'blackbeanswithrice', 'src': '/static/foodstim60/blackbeanswithrice.jpg', 'key': 'i', 'origWidth': 410, 'origHeight': 410, 'width': 410, 'height': 410, 'widthPercent': 0.45, 'rescaleHeight': False, 'trialN': 106, 'loaded': True, 'loadedTime': 3053.399999856949, 'positionName': 'RIGHT', 'positionCoords': [998.4, 335], 'bid': 3.5700000000000003}]",189838.0,1669830514164,luckycharms,blackbeanswithrice,1.82,3.5700000000000003,1.7500000000000002,blackbeanswithrice,1710.3999998569489,1713,1712.3999998569489,True,i,192055.89999985695,2217.899999856949,1669830516382,2218,HRV,HRV_0077,2022-11-30 17:50:43
107,"[{'imgObject': {}, 'id': 'raisin bran w milk', 'src': '/static/foodstim60/raisin bran w milk.jpg', 'key': 'u', 'origWidth': 411, 'origHeight': 411, 'width': 411, 'height': 411, 'widthPercent': 0.45, 'rescaleHeight': False, 'trialN': 107, 'loaded': True, 'loadedTime': 2897.5999999046326, 'positionName': 'LEFT', 'positionCoords': [510.6, 334.5], 'bid': 2.31}, {'imgObject': {}, 'id': 'banana', 'src': '/static/foodstim60/banana.jpg', 'key': 'i', 'origWidth': 410, 'origHeight': 410, 'width': 410, 'height': 410, 'widthPercent': 0.45, 'rescaleHeight': False, 'trialN': 107, 'loaded': True, 'loadedTime': 3077, 'positionName': 'RIGHT', 'positionCoords': [998.4, 335], 'bid': 5.42}]",192056.09999990463,1669830516382,raisin bran w milk,banana,2.31,5.42,3.11,banana,972.6000001430511,974,973.2999999523163,True,i,193535.70000004768,1479.6000001430511,1669830517862,1480,HRV,HRV_0077,2022-11-30 17:50:43
