success,trial_type,trial_index,time_elapsed,internal_node_id,Block,TrialNumber,TrialTime,trialTimeDiff,FPS_avg,FPS_med,FPS_mode,TrialDur,winResizeTime,rt,block,button_pressed,MotCoh,MotDir,ColCoh,Color,ChoiceKey,Choice,Accuracy,RT,nFrames,FPS,PPD,missTrial,missTrialMsg,onsetDelay,fullScreenExitTime,canvCenter,TrialType,Score,BlockTrial,stimulus,button_labels,exp,subjectId,date
True,fullscreen,0,1843,0.0-0.0,0.0,1.0,,,,,,,,,,,,,,,,,,,,,,,,,,,,,,,,HRV,HRV_0154,2022-11-30 18:25:13
,wl-check-fps,1,6837,0.0-1.0,0.0,2.0,"[2208.9, 2211.2, 2228.1, 2244.8, 2261.4, 2278.1, 2294.8, 2311.5, 2328.1, 2344.9, 2361.6, 2378.2, 2394.9, 2411.6, 2428.3, 2444.9, 2461.7, 2478.4, 2495, 2511.7, 2528.3, 2545.1, 2561.7, 2578.4, 2595.1, 2611.9, 2628.4, 2645.2, 2661.8, 2678.5, 2695.2, 2711.9, 2728.6, 2745.4, 2761.9, 2778.8, 2795.2, 2812, 2828.7, 2845.4, 2862, 2878.8, 2895.4, 2912.1, 2928.7, 2945.7, 2962.1, 2978.9, 2995.5, 3012.4, 3028.9, 3045.6, 3062.2, 3079, 3095.6, 3112.4, 3129, 3145.7, 3162.3, 3179, 3195.7, 3212.4, 3229.1, 3245.8, 3262.4, 3279.2, 3295.8, 3312.5, 3329.1, 3345.9, 3362.6, 3379.4, 3396.4, 3412.7, 3429.3, 3446, 3462.6, 3479.4, 3496, 3512.7, 3529.4, 3546.1, 3562.7, 3579.5, 3596.1, 3612.8, 3629.4, 3646.3, 3662.8, 3679.6, 3696.2, 3712.9, 3729.5, 3746.3, 3762.9, 3779.7, 3796.3, 3813, 3829.6, 3846.4, 3863, 3879.7, 3896.4, 3913.1, 3929.8, 3946.5, 3963.1, 3979.8, 3996.5, 4013.2, 4029.8, 4046.7, 4063.2, 4079.9, 4096.6, 4113.3, 4130, 4146.7, 4163.4, 4180, 4196.7, 4213.4, 4230.1, 4246.8, 4263.4, 4280.1, 4296.8, 4313.5, 4330.2, 4346.9, 4363.5, 4380.2, 4396.8, 4413.6, 4430.2, 4447, 4463.6, 4480.3, 4497, 4513.7, 4530.3, 4547.1, 4563.6, 4580.4, 4597.1, 4613.8, 4630.4, 4647.2, 4663.8, 4680.5, 4697.2, 4713.9, 4730.5, 4747.2, 4763.9, 4780.6, 4797.3, 4813.9, 4830.6, 4847.3, 4864.1, 4880.7, 4897.4, 4914.1, 4930.7, 4947.5, 4964.1, 4980.8, 4997.5, 5014.2, 5030.8, 5047.6, 5064.2, 5080.9, 5097.6, 5114.2, 5130.9, 5147.6, 5164.3, 5181, 5197.8, 5214.3, 5231.1, 5247.8, 5264.4, 5281.1, 5297.8, 5314.5, 5331.1, 5347.9, 5364.5, 5381.2, 5397.9, 5414.6, 5431.3, 5448, 5464.6, 5481.3, 5498, 5514.7, 5531.3, 5548.1, 5564.7, 5581.4, 5598.1, 5614.8, 5631.5, 5648.2, 5664.8, 5681.5, 5698.2, 5714.9, 5731.6, 5748.2, 5764.9, 5781.6, 5798.3, 5815, 5831.6, 5848.4, 5865.1, 5881.7, 5898.4, 5915.1, 5931.7, 5948.5, 5965.1, 5981.9, 6001, 6015.1, 6031.9, 6048.6, 6065.3, 6081.9, 6098.6, 6115.2, 6131.9, 6148.6, 6165.3, 6182, 6198.7, 6215.4, 6232.1, 6248.7, 6265.4, 6282.1, 6298.8, 6315.5, 6332.1, 6348.9, 6365.5, 6382.2, 6398.9, 6415.6, 6432.3, 6449, 6465.7, 6482.3, 6499, 6515.7, 6532.4, 6549.1, 6565.7, 6582.4, 6599.1, 6615.8, 6632.5, 6649.3, 6665.8, 6682.5, 6699.2, 6716, 6732.7, 6749.2, 6766, 6782.6, 6799.4, 6816, 6832.7, 6849.3, 6866.2, 6882.7, 6899.5, 6916.1, 6932.9, 6949.5, 6966.2, 6982.8, 6999.6, 7016.2, 7032.9, 7049.6, 7066.4, 7082.9, 7099.9, 7116.3, 7133.2, 7149.7, 7166.6, 7183]","[0.8, 2.3, 16.9, 16.7, 16.6, 16.7, 16.7, 16.7, 16.6, 16.8, 16.7, 16.6, 16.7, 16.7, 16.7, 16.6, 16.8, 16.7, 16.6, 16.7, 16.6, 16.8, 16.6, 16.7, 16.7, 16.8, 16.5, 16.8, 16.6, 16.7, 16.7, 16.7, 16.7, 16.8, 16.5, 16.9, 16.4, 16.8, 16.7, 16.7, 16.6, 16.8, 16.6, 16.7, 16.6, 17, 16.4, 16.8, 16.6, 16.9, 16.5, 16.7, 16.6, 16.8, 16.6, 16.8, 16.6, 16.7, 16.6, 16.7, 16.7, 16.7, 16.7, 16.7, 16.6, 16.8, 16.6, 16.7, 16.6, 16.8, 16.7, 16.8, 17, 16.3, 16.6, 16.7, 16.6, 16.8, 16.6, 16.7, 16.7, 16.7, 16.6, 16.8, 16.6, 16.7, 16.6, 16.9, 16.5, 16.8, 16.6, 16.7, 16.6, 16.8, 16.6, 16.8, 16.6, 16.7, 16.6, 16.8, 16.6, 16.7, 16.7, 16.7, 16.7, 16.7, 16.6, 16.7, 16.7, 16.7, 16.6, 16.9, 16.5, 16.7, 16.7, 16.7, 16.7, 16.7, 16.7, 16.6, 16.7, 16.7, 16.7, 16.7, 16.6, 16.7, 16.7, 16.7, 16.7, 16.7, 16.6, 16.7, 16.6, 16.8, 16.6, 16.8, 16.6, 16.7, 16.7, 16.7, 16.6, 16.8, 16.5, 16.8, 16.7, 16.7, 16.6, 16.8, 16.6, 16.7, 16.7, 16.7, 16.6, 16.7, 16.7, 16.7, 16.7, 16.6, 16.7, 16.7, 16.8, 16.6, 16.7, 16.7, 16.6, 16.8, 16.6, 16.7, 16.7, 16.7, 16.6, 16.8, 16.6, 16.7, 16.7, 16.6, 16.7, 16.7, 16.7, 16.7, 16.8, 16.5, 16.8, 16.7, 16.6, 16.7, 16.7, 16.7, 16.6, 16.8, 16.6, 16.7, 16.7, 16.7, 16.7, 16.7, 16.6, 16.7, 16.7, 16.7, 16.6, 16.8, 16.6, 16.7, 16.7, 16.7, 16.7, 16.7, 16.6, 16.7, 16.7, 16.7, 16.7, 16.6, 16.7, 16.7, 16.7, 16.7, 16.6, 16.8, 16.7, 16.6, 16.7, 16.7, 16.6, 16.8, 16.6, 16.8, 19.1, 14.1, 16.8, 16.7, 16.7, 16.6, 16.7, 16.6, 16.7, 16.7, 16.7, 16.7, 16.7, 16.7, 16.7, 16.6, 16.7, 16.7, 16.7, 16.7, 16.6, 16.8, 16.6, 16.7, 16.7, 16.7, 16.7, 16.7, 16.7, 16.6, 16.7, 16.7, 16.7, 16.7, 16.6, 16.7, 16.7, 16.7, 16.7, 16.8, 16.5, 16.7, 16.7, 16.8, 16.7, 16.5, 16.8, 16.6, 16.8, 16.6, 16.7, 16.6, 16.9, 16.5, 16.8, 16.6, 16.8, 16.6, 16.7, 16.6, 16.8, 16.6, 16.7, 16.7, 16.8, 16.5, 17, 16.4, 16.9, 16.5, 16.9, 16.4]",60.0,60.0,60.0,4991.8,[],,,,,,,,,,,,,,,,,,,,,,,,,HRV,HRV_0154,2022-11-30 18:25:13
,wl-html-keyboard-response,2,20356,0.0-2.0-0.0,0.0,3.0,,,,,,,,11509.399999976158,0.0,0,,,,,,,,,,,,,,,,,,,,,,HRV,HRV_0154,2022-11-30 18:25:13
,wl-rdm,3,26940,0.0-3.0-0.0,0.0,4.0,,,,,,,[],,,,0.0,0.0,87.9,0.0,u,0.0,True,1024.3999999761581,62.0,60.0,40.0,False,,3000.0,[],"[960, 540]",ColorTask_Demo,,,,,HRV,HRV_0154,2022-11-30 18:25:13
,wl-rdm,4,31544,0.0-3.0-1.0,0.0,5.0,,,,,,,[],,,,0.0,0.0,87.9,1.0,i,1.0,True,539.2999999523163,33.0,60.0,40.0,False,,2000.0,[],"[960, 540]",ColorTask_Demo,,,,,HRV,HRV_0154,2022-11-30 18:25:13
,wl-html-keyboard-response,5,37985,0.0-3.0-2.0,0.0,6.0,,,,,,,,4433.900000095367,0.0,1,,,,,,,,,,,,,,,,,,,,,,HRV,HRV_0154,2022-11-30 18:25:13
,wl-html-keyboard-response,6,47995,0.0-4.0-0.0,0.0,7.0,,,,,,,,7999.100000023842,0.0,0,,,,,,,,,,,,,,,,,,,,,,HRV,HRV_0154,2022-11-30 18:25:13
,wl-html-keyboard-response,7,62064,0.0-5.0-0.0,0.0,8.0,,,,,,,,12063.0,0.0,0,,,,,,,,,,,,,,,,,,,,,,HRV,HRV_0154,2022-11-30 18:25:13
,wl-rdm,8,64060,0.0-6.0-0.0,0.0,9.0,,,,,,,[],,,,,,73.6,1.0,i,1.0,True,696.4000000953674,42.0,60.0,40.0,False,,244.7299597940284,[],"[960, 540]",ColorTask,1.0,1.0,,,HRV,HRV_0154,2022-11-30 18:25:13
,wl-rdm,9,66011,0.0-6.1-0.1,0.0,10.0,,,,,,,[],,,,,,62.5,0.0,i,1.0,False,644.5,39.0,60.0,40.0,False,,238.23633811583468,[],"[960, 540]",ColorTask,0.0,2.0,,,HRV,HRV_0154,2022-11-30 18:25:13
,wl-rdm,10,68097,0.0-6.2-0.2,0.0,11.0,,,,,,,[],,,,,,62.5,0.0,u,0.0,True,719.3999999761581,44.0,60.0,40.0,False,,286.66007514169553,[],"[960, 540]",ColorTask,1.0,3.0,,,HRV,HRV_0154,2022-11-30 18:25:13
,wl-rdm,11,70282,0.0-6.3-0.3,0.0,12.0,,,,,,,[],,,,,,56.4,1.0,i,1.0,True,744.5,45.0,60.0,40.0,False,,368.1827691680887,[],"[960, 540]",ColorTask,2.0,4.0,,,HRV,HRV_0154,2022-11-30 18:25:13
,wl-rdm,12,72601,0.0-6.4-0.4,0.0,13.0,,,,,,,[],,,,,,62.5,1.0,i,1.0,True,964.7999999523163,58.0,60.0,40.0,False,,287.403619061879,[],"[960, 540]",ColorTask,3.0,5.0,,,HRV,HRV_0154,2022-11-30 18:25:13
,wl-rdm,13,74704,0.0-6.5-0.5,0.0,14.0,,,,,,,[],,,,,,50.0,1.0,i,1.0,True,819.0,49.0,60.0,40.0,False,,215.32620402892672,[],"[960, 540]",ColorTask,4.0,6.0,,,HRV,HRV_0154,2022-11-30 18:25:13
,wl-rdm,14,76740,0.0-6.6-0.6,0.0,15.0,,,,,,,[],,,,,,50.0,1.0,u,0.0,False,736.7000000476837,45.0,60.0,40.0,False,,220.15701746707725,[],"[960, 540]",ColorTask,3.0,7.0,,,HRV,HRV_0154,2022-11-30 18:25:13
,wl-rdm,15,78826,0.0-6.7-0.7,0.0,16.0,,,,,,,[],,,,,,53.2,0.0,u,0.0,True,722.2000000476837,44.0,60.0,40.0,False,,291.1575675301504,[],"[960, 540]",ColorTask,4.0,8.0,,,HRV,HRV_0154,2022-11-30 18:25:13
,wl-rdm,16,81244,0.0-6.8-0.8,0.0,17.0,,,,,,,[],,,,,,50.0,0.0,i,1.0,False,1022.6999999284744,62.0,60.0,40.0,False,,324.196233492793,[],"[960, 540]",ColorTask,3.0,9.0,,,HRV,HRV_0154,2022-11-30 18:25:13
,wl-rdm,17,83346,0.0-6.9-0.9,0.0,18.0,,,,,,,[],,,,,,53.2,1.0,u,0.0,False,755.5,46.0,60.0,40.0,False,,268.3793465900003,[],"[960, 540]",ColorTask,2.0,10.0,,,HRV,HRV_0154,2022-11-30 18:25:13
,wl-rdm,18,85465,0.0-6.10-0.10,0.0,19.0,,,,,,,[],,,,,,62.5,0.0,u,0.0,True,825.4000000953674,50.0,60.0,40.0,False,,226.88485676688595,[],"[960, 540]",ColorTask,3.0,11.0,,,HRV,HRV_0154,2022-11-30 18:25:13
,wl-rdm,19,87483,0.0-6.11-0.11,0.0,20.0,,,,,,,[],,,,,,87.9,0.0,u,0.0,True,685.9000000953674,42.0,60.0,40.0,False,,257.7292344216046,[],"[960, 540]",ColorTask,4.0,12.0,,,HRV,HRV_0154,2022-11-30 18:25:13
,wl-rdm,20,89469,0.0-6.12-0.12,0.0,21.0,,,,,,,[],,,,,,87.9,0.0,u,0.0,True,698.4000000953674,42.0,60.0,40.0,False,,225.72524317052137,[],"[960, 540]",ColorTask,5.0,13.0,,,HRV,HRV_0154,2022-11-30 18:25:13
,wl-rdm,21,91488,0.0-6.13-0.13,0.0,22.0,,,,,,,[],,,,,,50.0,1.0,u,0.0,False,693.2999999523163,42.0,60.0,40.0,False,,236.02326720817777,[],"[960, 540]",ColorTask,4.0,14.0,,,HRV,HRV_0154,2022-11-30 18:25:13
,wl-rdm,22,93656,0.0-6.14-0.14,0.0,23.0,,,,,,,[],,,,,,56.4,0.0,i,1.0,False,705.2999999523163,43.0,60.0,40.0,False,,392.5209312483019,[],"[960, 540]",ColorTask,3.0,15.0,,,HRV,HRV_0154,2022-11-30 18:25:13
,wl-rdm,23,96009,0.0-6.15-0.15,0.0,24.0,,,,,,,[],,,,,,56.4,1.0,i,1.0,True,976.5,59.0,60.0,40.0,False,,306.4027287547385,[],"[960, 540]",ColorTask,4.0,16.0,,,HRV,HRV_0154,2022-11-30 18:25:13
,wl-rdm,24,98228,0.0-6.16-0.16,0.0,25.0,,,,,,,[],,,,,,87.9,1.0,i,1.0,True,827.5,50.0,60.0,40.0,False,,323.437851265121,[],"[960, 540]",ColorTask,5.0,17.0,,,HRV,HRV_0154,2022-11-30 18:25:13
,wl-rdm,25,100396,0.0-6.17-0.17,0.0,26.0,,,,,,,[],,,,,,73.6,1.0,i,1.0,True,822.7000000476837,50.0,60.0,40.0,False,,285.5987870149796,[],"[960, 540]",ColorTask,6.0,18.0,,,HRV,HRV_0154,2022-11-30 18:25:13
,wl-rdm,26,102615,0.0-6.18-0.18,0.0,27.0,,,,,,,[],,,,,,50.0,0.0,i,1.0,False,890.7000000476837,54.0,60.0,40.0,False,,258.46519605720954,[],"[960, 540]",ColorTask,5.0,19.0,,,HRV,HRV_0154,2022-11-30 18:25:13
,wl-rdm,27,104968,0.0-6.19-0.19,0.0,28.0,,,,,,,[],,,,,,53.2,0.0,u,0.0,True,915.1000000238419,55.0,60.0,40.0,False,,387.3709584344386,[],"[960, 540]",ColorTask,6.0,20.0,,,HRV,HRV_0154,2022-11-30 18:25:13
,wl-rdm,28,107520,0.0-6.20-0.20,0.0,29.0,,,,,,,[],,,,,,73.6,0.0,u,0.0,True,1236.1000000238419,75.0,60.0,40.0,False,,237.63877731056996,[],"[960, 540]",ColorTask,7.0,21.0,,,HRV,HRV_0154,2022-11-30 18:25:13
,wl-rdm,29,109606,0.0-6.21-0.21,0.0,30.0,,,,,,,[],,,,,,56.4,0.0,u,0.0,True,796.1000000238419,48.0,60.0,40.0,False,,226.59345604372623,[],"[960, 540]",ColorTask,8.0,22.0,,,HRV,HRV_0154,2022-11-30 18:25:13
,wl-rdm,30,111758,0.0-6.22-0.22,0.0,31.0,,,,,,,[],,,,,,62.5,1.0,i,1.0,True,862.3000000715256,52.0,60.0,40.0,False,,214.1481987660846,[],"[960, 540]",ColorTask,9.0,23.0,,,HRV,HRV_0154,2022-11-30 18:25:13
,wl-rdm,31,113960,0.0-6.23-0.23,0.0,32.0,,,,,,,[],,,,,,53.2,1.0,i,1.0,True,879.3000000715256,53.0,60.0,40.0,False,,256.43827572294475,[],"[960, 540]",ColorTask,10.0,24.0,,,HRV,HRV_0154,2022-11-30 18:25:13
,wl-rdm,32,116313,0.0-6.24-0.24,0.0,33.0,,,,,,,[],,,,,,50.0,0.0,u,0.0,True,914.2000000476837,55.0,60.0,40.0,False,,358.80224897641807,[],"[960, 540]",ColorTask,11.0,25.0,,,HRV,HRV_0154,2022-11-30 18:25:13
,wl-rdm,33,118698,0.0-6.25-0.25,0.0,34.0,,,,,,,[],,,,,,73.6,1.0,i,1.0,True,980.3000000715256,59.0,60.0,40.0,False,,343.2973366033239,[],"[960, 540]",ColorTask,12.0,26.0,,,HRV,HRV_0154,2022-11-30 18:25:13
,wl-rdm,34,120984,0.0-6.26-0.26,0.0,35.0,,,,,,,[],,,,,,53.2,1.0,u,0.0,False,947.3000000715256,57.0,60.0,40.0,False,,281.8255983603544,[],"[960, 540]",ColorTask,11.0,27.0,,,HRV,HRV_0154,2022-11-30 18:25:13
,wl-rdm,35,123019,0.0-6.27-0.27,0.0,36.0,,,,,,,[],,,,,,50.0,1.0,i,1.0,True,732.9000000953674,44.0,60.0,40.0,False,,246.64780987001325,[],"[960, 540]",ColorTask,12.0,28.0,,,HRV,HRV_0154,2022-11-30 18:25:13
,wl-rdm,36,125088,0.0-6.28-0.28,0.0,37.0,,,,,,,[],,,,,,73.6,0.0,i,1.0,False,731.3000000715256,44.0,60.0,40.0,False,,269.05746058658497,[],"[960, 540]",ColorTask,11.0,29.0,,,HRV,HRV_0154,2022-11-30 18:25:13
,wl-rdm,37,127274,0.0-6.29-0.29,0.0,38.0,,,,,,,[],,,,,,62.5,1.0,u,0.0,False,845.6000000238419,51.0,60.0,40.0,False,,267.6782389410445,[],"[960, 540]",ColorTask,10.0,30.0,,,HRV,HRV_0154,2022-11-30 18:25:13
,wl-rdm,38,129742,0.0-6.30-0.30,0.0,39.0,,,,,,,[],,,,,,87.9,1.0,i,1.0,True,1029.8000000715256,62.0,60.0,40.0,False,,398.0929009631734,[],"[960, 540]",ColorTask,11.0,31.0,,,HRV,HRV_0154,2022-11-30 18:25:13
,wl-rdm,39,133730,0.0-6.31-0.31,0.0,40.0,,,,,,,[],,,,,,50.0,0.0,i,1.0,False,2546.100000023842,153.0,60.0,40.0,False,,367.2825032197337,[],"[960, 540]",ColorTask,10.0,32.0,,,HRV,HRV_0154,2022-11-30 18:25:13
,wl-rdm,40,136351,0.0-6.32-0.32,0.0,41.0,,,,,,,[],,,,,,87.9,1.0,i,1.0,True,1219.1999999284744,74.0,60.0,40.0,False,,325.16073203728416,[],"[960, 540]",ColorTask,11.0,33.0,,,HRV,HRV_0154,2022-11-30 18:25:13
,wl-rdm,41,139018,0.0-6.33-0.33,0.0,42.0,,,,,,,[],,,,,,62.5,1.0,i,1.0,True,1280.2999999523163,77.0,60.0,40.0,False,,322.99577554039047,[],"[960, 540]",ColorTask,12.0,34.0,,,HRV,HRV_0154,2022-11-30 18:25:13
,wl-rdm,42,141771,0.0-6.34-0.34,0.0,43.0,,,,,,,[],,,,,,50.0,1.0,u,0.0,False,1375.3000000715256,83.0,60.0,40.0,False,,310.40755878178516,[],"[960, 540]",ColorTask,11.0,35.0,,,HRV,HRV_0154,2022-11-30 18:25:13
,wl-rdm,43,144460,0.0-6.35-0.35,0.0,44.0,,,,,,,[],,,,,,62.5,1.0,i,1.0,True,1371.4000000953674,83.0,60.0,40.0,False,,241.93952485253843,[],"[960, 540]",ColorTask,12.0,36.0,,,HRV,HRV_0154,2022-11-30 18:25:13
,wl-rdm,44,146459,0.0-6.36-0.36,0.0,45.0,,,,,,,[],,,,,,87.9,1.0,i,1.0,True,731.7000000476837,44.0,60.0,40.0,False,,206.6972736332814,[],"[960, 540]",ColorTask,13.0,37.0,,,HRV,HRV_0154,2022-11-30 18:25:13
,wl-rdm,45,148847,0.0-6.37-0.37,0.0,46.0,,,,,,,[],,,,,,73.6,0.0,u,0.0,True,993.9999998807907,60.0,60.0,40.0,False,,322.14237848853725,[],"[960, 540]",ColorTask,14.0,38.0,,,HRV,HRV_0154,2022-11-30 18:25:13
,wl-rdm,46,150897,0.0-6.38-0.38,0.0,47.0,,,,,,,[],,,,,,62.5,0.0,u,0.0,True,732.3999999761581,44.0,60.0,40.0,False,,253.9617508663598,[],"[960, 540]",ColorTask,15.0,39.0,,,HRV,HRV_0154,2022-11-30 18:25:13
,wl-rdm,47,153035,0.0-6.39-0.39,0.0,48.0,,,,,,,[],,,,,,73.6,1.0,i,1.0,True,835.5,51.0,60.0,40.0,False,,228.94717282371496,[],"[960, 540]",ColorTask,16.0,40.0,,,HRV,HRV_0154,2022-11-30 18:25:13
,wl-rdm,48,156386,0.0-6.40-0.40,0.0,49.0,,,,,,,[],,,,,,50.0,1.0,u,0.0,False,1994.2000000476837,120.0,60.0,40.0,False,,296.0328815423943,[],"[960, 540]",ColorTask,15.0,41.0,,,HRV,HRV_0154,2022-11-30 18:25:13
,wl-rdm,49,158755,0.0-6.41-0.41,0.0,50.0,,,,,,,[],,,,,,73.6,0.0,u,0.0,True,956.3000000715256,58.0,60.0,40.0,False,,345.3889063208039,[],"[960, 540]",ColorTask,16.0,42.0,,,HRV,HRV_0154,2022-11-30 18:25:13
,wl-rdm,50,160990,0.0-6.42-0.42,0.0,51.0,,,,,,,[],,,,,,87.9,0.0,u,0.0,True,945.5999999046326,57.0,60.0,40.0,False,,225.10956550158437,[],"[960, 540]",ColorTask,17.0,43.0,,,HRV,HRV_0154,2022-11-30 18:25:13
,wl-rdm,51,163643,0.0-6.43-0.43,0.0,52.0,,,,,,,[],,,,,,50.0,0.0,u,0.0,True,1210.5,73.0,60.0,40.0,False,,362.11540171272566,[],"[960, 540]",ColorTask,18.0,44.0,,,HRV,HRV_0154,2022-11-30 18:25:13
,wl-rdm,52,166196,0.0-6.44-0.44,0.0,53.0,,,,,,,[],,,,,,50.0,1.0,u,0.0,False,1123.7000000476837,68.0,60.0,40.0,False,,366.45477745266834,[],"[960, 540]",ColorTask,17.0,45.0,,,HRV,HRV_0154,2022-11-30 18:25:13
,wl-rdm,53,168248,0.0-6.45-0.45,0.0,54.0,,,,,,,[],,,,,,56.4,0.0,i,1.0,False,778.5000001192093,47.0,60.0,40.0,False,,210.70005106255817,[],"[960, 540]",ColorTask,16.0,46.0,,,HRV,HRV_0154,2022-11-30 18:25:13
,wl-rdm,54,170917,0.0-6.46-0.46,0.0,55.0,,,,,,,[],,,,,,87.9,1.0,i,1.0,True,1227.5999999046326,74.0,60.0,40.0,False,,368.59833461116045,[],"[960, 540]",ColorTask,17.0,47.0,,,HRV,HRV_0154,2022-11-30 18:25:13
,wl-rdm,55,173820,0.0-6.47-0.47,0.0,56.0,,,,,,,[],,,,,,56.4,0.0,u,0.0,True,1515.5,91.0,60.0,40.0,False,,333.32571662236546,[],"[960, 540]",ColorTask,18.0,48.0,,,HRV,HRV_0154,2022-11-30 18:25:13
,wl-rdm,56,176239,0.0-6.48-0.48,0.0,57.0,,,,,,,[],,,,,,87.9,1.0,u,0.0,False,983.2000000476837,59.0,60.0,40.0,False,,370.4746338209527,[],"[960, 540]",ColorTask,17.0,49.0,,,HRV,HRV_0154,2022-11-30 18:25:13
,wl-rdm,57,180093,0.0-6.49-0.49,0.0,58.0,,,,,,,[],,,,,,56.4,1.0,i,1.0,True,2565.4000000953674,154.0,60.0,40.0,False,,219.3244103825275,[],"[960, 540]",ColorTask,18.0,50.0,,,HRV,HRV_0154,2022-11-30 18:25:13
,wl-rdm,58,182879,0.0-6.50-0.50,0.0,59.0,,,,,,,[],,,,,,73.6,0.0,u,0.0,True,1475.6000000238419,89.0,60.0,40.0,False,,246.1035554402833,[],"[960, 540]",ColorTask,19.0,51.0,,,HRV,HRV_0154,2022-11-30 18:25:13
,wl-rdm,59,185632,0.0-6.51-0.51,0.0,60.0,,,,,,,[],,,,,,56.4,1.0,u,0.0,False,1429.0999999046326,86.0,60.0,40.0,False,,250.6195863887909,[],"[960, 540]",ColorTask,18.0,52.0,,,HRV,HRV_0154,2022-11-30 18:25:13
,wl-rdm,60,188385,0.0-6.52-0.52,0.0,61.0,,,,,,,[],,,,,,56.4,0.0,u,0.0,True,1342.8999999761581,81.0,60.0,40.0,False,,357.27349354263015,[],"[960, 540]",ColorTask,19.0,53.0,,,HRV,HRV_0154,2022-11-30 18:25:13
,wl-rdm,61,191722,0.0-6.53-0.53,0.0,62.0,,,,,,,[],,,,,,56.4,0.0,u,0.0,True,2019.5,122.0,60.0,40.0,False,,248.2267913923542,[],"[960, 540]",ColorTask,20.0,54.0,,,HRV,HRV_0154,2022-11-30 18:25:13
,wl-rdm,62,193924,0.0-6.54-0.54,0.0,63.0,,,,,,,[],,,,,,73.6,0.0,u,0.0,True,796.3000000715256,47.0,60.0,40.0,False,,350.000529466596,[],"[960, 540]",ColorTask,21.0,55.0,,,HRV,HRV_0154,2022-11-30 18:25:13
,wl-rdm,63,196360,0.0-6.55-0.55,0.0,64.0,,,,,,,[],,,,,,62.5,0.0,u,0.0,True,1051.3999999761581,64.0,60.0,40.0,False,,312.4792009790233,[],"[960, 540]",ColorTask,22.0,56.0,,,HRV,HRV_0154,2022-11-30 18:25:13
,wl-rdm,64,200347,0.0-6.56-0.56,0.0,65.0,,,,,,,[],,,,,,53.2,0.0,u,0.0,True,2701.0,162.0,60.0,40.0,False,,221.25697773958393,[],"[960, 540]",ColorTask,23.0,57.0,,,HRV,HRV_0154,2022-11-30 18:25:13
,wl-rdm,65,203517,0.0-6.57-0.57,0.0,66.0,,,,,,,[],,,,,,53.2,1.0,i,1.0,True,1831.7999999523163,106.0,60.0,40.0,False,,256.36211758370786,[],"[960, 540]",ColorTask,24.0,58.0,,,HRV,HRV_0154,2022-11-30 18:25:13
,wl-rdm,66,206253,0.0-6.58-0.58,0.0,67.0,,,,,,,[],,,,,,87.9,0.0,u,0.0,True,1360.6000000238419,82.0,60.0,40.0,False,,301.5903696978923,[],"[960, 540]",ColorTask,25.0,59.0,,,HRV,HRV_0154,2022-11-30 18:25:13
,wl-rdm,67,209206,0.0-6.59-0.59,0.0,68.0,,,,,,,[],,,,,,62.5,1.0,i,1.0,True,1537.8999999761581,93.0,60.0,40.0,False,,342.40214401945946,[],"[960, 540]",ColorTask,26.0,60.0,,,HRV,HRV_0154,2022-11-30 18:25:13
,wl-rdm,68,211725,0.0-6.60-0.60,0.0,69.0,,,,,,,[],,,,,,87.9,1.0,i,1.0,True,1112.9000000953674,67.0,60.0,40.0,False,,328.0022637530784,[],"[960, 540]",ColorTask,27.0,61.0,,,HRV,HRV_0154,2022-11-30 18:25:13
,wl-rdm,69,213794,0.0-6.61-0.61,0.0,70.0,,,,,,,[],,,,,,56.4,1.0,i,1.0,True,715.1999999284744,43.0,60.0,40.0,False,,299.695799068764,[],"[960, 540]",ColorTask,28.0,62.0,,,HRV,HRV_0154,2022-11-30 18:25:13
,wl-rdm,70,215979,0.0-6.62-0.62,0.0,71.0,,,,,,,[],,,,,,87.9,0.0,u,0.0,True,857.6000000238419,52.0,60.0,40.0,False,,263.37217201345743,[],"[960, 540]",ColorTask,29.0,63.0,,,HRV,HRV_0154,2022-11-30 18:25:13
,wl-rdm,71,218565,0.0-6.63-0.63,0.0,72.0,,,,,,,[],,,,,,62.5,1.0,i,1.0,True,1222.0,74.0,60.0,40.0,False,,285.3715331290043,[],"[960, 540]",ColorTask,30.0,64.0,,,HRV,HRV_0154,2022-11-30 18:25:13
,wl-rdm,72,220834,0.0-6.64-0.64,0.0,73.0,,,,,,,[],,,,,,56.4,0.0,u,0.0,True,838.0999999046326,51.0,60.0,40.0,False,,366.4991102825902,[],"[960, 540]",ColorTask,31.0,65.0,,,HRV,HRV_0154,2022-11-30 18:25:13
,wl-rdm,73,225105,0.0-6.65-0.65,0.0,74.0,,,,,,,[],,,,,,53.2,1.0,u,0.0,False,2864.7999999523163,172.0,60.0,40.0,False,,349.76471991102017,[],"[960, 540]",ColorTask,30.0,66.0,,,HRV,HRV_0154,2022-11-30 18:25:13
,wl-rdm,74,227141,0.0-6.66-0.66,0.0,75.0,,,,,,,[],,,,,,56.4,1.0,i,1.0,True,705.5,43.0,60.0,40.0,False,,260.48395224846075,[],"[960, 540]",ColorTask,31.0,67.0,,,HRV,HRV_0154,2022-11-30 18:25:13
,wl-rdm,75,229293,0.0-6.67-0.67,0.0,76.0,,,,,,,[],,,,,,73.6,1.0,i,1.0,True,826.8999999761581,50.0,60.0,40.0,False,,273.7382828425189,[],"[960, 540]",ColorTask,32.0,68.0,,,HRV,HRV_0154,2022-11-30 18:25:13
,wl-rdm,76,231462,0.0-6.68-0.68,0.0,77.0,,,,,,,[],,,,,,87.9,0.0,u,0.0,True,715.8000000715256,43.0,60.0,40.0,False,,384.42828464108743,[],"[960, 540]",ColorTask,33.0,69.0,,,HRV,HRV_0154,2022-11-30 18:25:13
,wl-rdm,77,235866,0.0-6.69-0.69,0.0,77.0,,,,,,,[],,,,,,53.2,0.0,,,,,179.0,60.0,40.0,True,RT_timeout ,346.92748299051976,[],"[960, 540]",ColorTask,32.0,70.0,,,HRV,HRV_0154,2022-11-30 18:25:13
,wl-rdm,78,238452,0.0-6.70-0.70,0.0,78.0,,,,,,,[],,,,,,53.2,1.0,u,0.0,False,1301.8000000715256,79.0,60.0,40.0,False,,200.8362234063889,[],"[960, 540]",ColorTask,31.0,71.0,,,HRV,HRV_0154,2022-11-30 18:25:13
,wl-rdm,79,240487,0.0-6.71-0.71,0.0,79.0,,,,,,,[],,,,,,87.9,0.0,u,0.0,True,699.0,42.0,60.0,40.0,False,,269.31331728781277,[],"[960, 540]",ColorTask,32.0,72.0,,,HRV,HRV_0154,2022-11-30 18:25:13
,wl-rdm,80,242573,0.0-6.72-0.72,0.0,80.0,,,,,,,[],,,,,,53.2,0.0,u,0.0,True,634.8999999761581,39.0,60.0,40.0,False,,377.25403202171196,[],"[960, 540]",ColorTask,33.0,73.0,,,HRV,HRV_0154,2022-11-30 18:25:13
,wl-rdm,81,244827,0.0-6.73-0.73,0.0,81.0,,,,,,,[],,,,,,50.0,0.0,u,0.0,True,792.4000000953674,47.0,60.0,40.0,False,,396.0397838021008,[],"[960, 540]",ColorTask,34.0,74.0,,,HRV,HRV_0154,2022-11-30 18:25:13
,wl-rdm,82,247060,0.0-6.74-0.74,0.0,82.0,,,,,,,[],,,,,,62.5,1.0,u,0.0,False,833.2999999523163,50.0,60.0,40.0,False,,338.25073502914006,[],"[960, 540]",ColorTask,33.0,75.0,,,HRV,HRV_0154,2022-11-30 18:25:13
,wl-rdm,83,249312,0.0-6.75-0.75,0.0,83.0,,,,,,,[],,,,,,62.5,0.0,u,0.0,True,794.299999833107,48.0,60.0,40.0,False,,343.6915395889249,[],"[960, 540]",ColorTask,34.0,76.0,,,HRV,HRV_0154,2022-11-30 18:25:13
,wl-rdm,84,251431,0.0-6.76-0.76,0.0,84.0,,,,,,,[],,,,,,73.6,1.0,i,1.0,True,781.1999999284744,47.0,60.0,40.0,False,,281.2116635332377,[],"[960, 540]",ColorTask,35.0,77.0,,,HRV,HRV_0154,2022-11-30 18:25:13
,wl-rdm,85,253334,0.0-6.77-0.77,0.0,85.0,,,,,,,[],,,,,,56.4,0.0,i,1.0,False,588.7999999523163,36.0,60.0,40.0,False,,239.44154224555896,[],"[960, 540]",ColorTask,34.0,78.0,,,HRV,HRV_0154,2022-11-30 18:25:13
,wl-rdm,86,255419,0.0-6.78-0.78,0.0,86.0,,,,,,,[],,,,,,73.6,0.0,u,0.0,True,692.5,42.0,60.0,40.0,False,,331.6406831210129,[],"[960, 540]",ColorTask,35.0,79.0,,,HRV,HRV_0154,2022-11-30 18:25:13
,wl-rdm,87,257488,0.0-6.79-0.79,0.0,87.0,,,,,,,[],,,,,,53.2,1.0,u,0.0,False,768.7000000476837,47.0,60.0,40.0,False,,206.4537342071664,[],"[960, 540]",ColorTask,34.0,80.0,,,HRV,HRV_0154,2022-11-30 18:25:13
,wl-rdm,88,259456,0.0-6.80-0.80,0.0,88.0,,,,,,,[],,,,,,53.2,0.0,i,1.0,False,650.1000000238419,39.0,60.0,40.0,False,,252.90402740444665,[],"[960, 540]",ColorTask,33.0,81.0,,,HRV,HRV_0154,2022-11-30 18:25:13
,wl-rdm,89,261608,0.0-6.81-0.81,0.0,89.0,,,,,,,[],,,,,,87.9,0.0,u,0.0,True,696.8999999761581,42.0,60.0,40.0,False,,388.46188612533683,[],"[960, 540]",ColorTask,34.0,82.0,,,HRV,HRV_0154,2022-11-30 18:25:13
,wl-rdm,90,263810,0.0-6.82-0.82,0.0,90.0,,,,,,,[],,,,,,87.9,1.0,i,1.0,True,805.5,49.0,60.0,40.0,False,,312.19787420785104,[],"[960, 540]",ColorTask,35.0,83.0,,,HRV,HRV_0154,2022-11-30 18:25:13
,wl-rdm,91,266496,0.0-6.83-0.83,0.0,91.0,,,,,,,[],,,,,,73.6,0.0,u,0.0,True,1346.7000000476837,81.0,60.0,40.0,False,,271.71458692128954,[],"[960, 540]",ColorTask,36.0,84.0,,,HRV,HRV_0154,2022-11-30 18:25:13
,wl-rdm,92,268932,0.0-6.84-0.84,0.0,92.0,,,,,,,[],,,,,,53.2,1.0,u,0.0,False,1031.6999999284744,62.0,60.0,40.0,False,,340.7879460629358,[],"[960, 540]",ColorTask,35.0,85.0,,,HRV,HRV_0154,2022-11-30 18:25:13
,wl-rdm,93,271018,0.0-6.85-0.85,0.0,93.0,,,,,,,[],,,,,,87.9,0.0,i,1.0,False,700.6000000238419,42.0,60.0,40.0,False,,320.6982148284585,[],"[960, 540]",ColorTask,34.0,86.0,,,HRV,HRV_0154,2022-11-30 18:25:13
,wl-rdm,94,273170,0.0-6.86-0.86,0.0,94.0,,,,,,,[],,,,,,73.6,1.0,i,1.0,True,882.5,53.0,60.0,40.0,False,,201.98059108527022,[],"[960, 540]",ColorTask,35.0,87.0,,,HRV,HRV_0154,2022-11-30 18:25:13
,wl-rdm,95,275572,0.0-6.87-0.87,0.0,95.0,,,,,,,[],,,,,,53.2,0.0,i,1.0,False,946.2999999523163,53.0,60.0,40.0,False,,382.69924555100073,[],"[960, 540]",ColorTask,34.0,88.0,,,HRV,HRV_0154,2022-11-30 18:25:13
,wl-rdm,96,277841,0.0-6.88-0.88,0.0,96.0,,,,,,,[],,,,,,56.4,0.0,u,0.0,True,804.6000000238419,49.0,60.0,40.0,False,,387.4438128302976,[],"[960, 540]",ColorTask,35.0,89.0,,,HRV,HRV_0154,2022-11-30 18:25:13
,wl-rdm,97,280043,0.0-6.89-0.89,0.0,97.0,,,,,,,[],,,,,,50.0,1.0,u,0.0,False,829.2999999523163,50.0,60.0,40.0,False,,316.47955246586514,[],"[960, 540]",ColorTask,34.0,90.0,,,HRV,HRV_0154,2022-11-30 18:25:13
,wl-rdm,98,282180,0.0-6.90-0.90,0.0,98.0,,,,,,,[],,,,,,50.0,1.0,u,0.0,False,738.0999999046326,45.0,60.0,40.0,False,,325.34790125499666,[],"[960, 540]",ColorTask,33.0,91.0,,,HRV,HRV_0154,2022-11-30 18:25:13
,wl-rdm,99,284231,0.0-6.91-0.91,0.0,99.0,,,,,,,[],,,,,,73.6,1.0,i,1.0,True,665.7999999523163,40.0,60.0,40.0,False,,320.04026363929495,[],"[960, 540]",ColorTask,34.0,92.0,,,HRV,HRV_0154,2022-11-30 18:25:13
,wl-rdm,100,286900,0.0-6.92-0.92,0.0,100.0,,,,,,,[],,,,,,62.5,0.0,i,1.0,False,1218.0,73.0,60.0,40.0,False,,368.47648170061177,[],"[960, 540]",ColorTask,33.0,93.0,,,HRV,HRV_0154,2022-11-30 18:25:13
,wl-rdm,101,289019,0.0-6.93-0.93,0.0,101.0,,,,,,,[],,,,,,56.4,1.0,i,1.0,True,818.5000001192093,47.0,60.0,40.0,False,,221.42103806658238,[],"[960, 540]",ColorTask,34.0,94.0,,,HRV,HRV_0154,2022-11-30 18:25:13
,wl-rdm,102,291438,0.0-6.94-0.94,0.0,102.0,,,,,,,[],,,,,,62.5,0.0,u,0.0,True,1118.5999999046326,68.0,60.0,40.0,False,,229.38257905918937,[],"[960, 540]",ColorTask,35.0,95.0,,,HRV,HRV_0154,2022-11-30 18:25:13
,wl-rdm,103,293707,0.0-6.95-0.95,0.0,103.0,,,,,,,[],,,,,,62.5,0.0,u,0.0,True,997.2000000476837,60.0,60.0,40.0,False,,204.45063599011272,[],"[960, 540]",ColorTask,36.0,96.0,,,HRV,HRV_0154,2022-11-30 18:25:13
,wl-rdm,104,296126,0.0-6.96-0.96,0.0,104.0,,,,,,,[],,,,,,53.2,0.0,u,0.0,True,1061.6000000238419,64.0,60.0,40.0,False,,307.9292828634311,[],"[960, 540]",ColorTask,37.0,97.0,,,HRV,HRV_0154,2022-11-30 18:25:13
,wl-rdm,105,298578,0.0-6.97-0.97,0.0,105.0,,,,,,,[],,,,,,50.0,0.0,u,0.0,True,1124.3999999761581,68.0,60.0,40.0,False,,262.03201941135774,[],"[960, 540]",ColorTask,38.0,98.0,,,HRV,HRV_0154,2022-11-30 18:25:13
,wl-rdm,106,300847,0.0-6.98-0.98,0.0,106.0,,,,,,,[],,,,,,73.6,0.0,u,0.0,True,914.5,55.0,60.0,40.0,False,,296.59452232138244,[],"[960, 540]",ColorTask,39.0,99.0,,,HRV,HRV_0154,2022-11-30 18:25:13
,wl-rdm,107,303684,0.0-6.99-0.99,0.0,107.0,,,,,,,[],,,,,,50.0,0.0,u,0.0,True,1426.3999999761581,86.0,60.0,40.0,False,,345.04984715448415,[],"[960, 540]",ColorTask,40.0,100.0,,,HRV,HRV_0154,2022-11-30 18:25:13
,wl-rdm,108,305986,0.0-6.100-0.100,0.0,108.0,,,,,,,[],,,,,,53.2,0.0,u,0.0,True,906.8999999761581,55.0,60.0,40.0,False,,333.35247253457885,[],"[960, 540]",ColorTask,41.0,101.0,,,HRV,HRV_0154,2022-11-30 18:25:13
,wl-rdm,109,308689,0.0-6.101-0.101,0.0,109.0,,,,,,,[],,,,,,56.4,1.0,u,0.0,False,1396.6000000238419,84.0,60.0,40.0,False,,237.49591092773548,[],"[960, 540]",ColorTask,40.0,102.0,,,HRV,HRV_0154,2022-11-30 18:25:13
,wl-rdm,110,311108,0.0-6.102-0.102,0.0,110.0,,,,,,,[],,,,,,53.2,0.0,u,0.0,True,967.3999999761581,57.0,60.0,40.0,False,,397.3408306035733,[],"[960, 540]",ColorTask,41.0,103.0,,,HRV,HRV_0154,2022-11-30 18:25:13
,wl-rdm,111,313727,0.0-6.103-0.103,0.0,111.0,,,,,,,[],,,,,,87.9,1.0,i,1.0,True,1282.7999999523163,77.0,60.0,40.0,False,,279.7219485917801,[],"[960, 540]",ColorTask,42.0,104.0,,,HRV,HRV_0154,2022-11-30 18:25:13
,wl-rdm,112,316413,0.0-6.104-0.104,0.0,112.0,,,,,,,[],,,,,,50.0,0.0,i,1.0,False,1335.1999999284744,77.0,60.0,40.0,False,,282.3370482691167,[],"[960, 540]",ColorTask,41.0,105.0,,,HRV,HRV_0154,2022-11-30 18:25:13
,wl-rdm,113,319235,0.0-6.105-0.105,0.0,113.0,,,,,,,[],,,,,,56.4,1.0,u,0.0,False,1542.5,93.0,60.0,40.0,False,,210.65864156695963,[],"[960, 540]",ColorTask,40.0,106.0,,,HRV,HRV_0154,2022-11-30 18:25:13
,wl-rdm,114,321702,0.0-6.106-0.106,0.0,114.0,,,,,,,[],,,,,,62.5,1.0,i,1.0,True,1198.8000000715256,72.0,60.0,40.0,False,,210.43705260558832,[],"[960, 540]",ColorTask,41.0,107.0,,,HRV,HRV_0154,2022-11-30 18:25:13
,wl-rdm,115,324705,0.0-6.107-0.107,0.0,115.0,,,,,,,[],,,,,,53.2,1.0,u,0.0,False,1630.2999999523163,98.0,60.0,40.0,False,,310.6526231777086,[],"[960, 540]",ColorTask,40.0,108.0,,,HRV,HRV_0154,2022-11-30 18:25:13
,wl-rdm,116,326774,0.0-6.108-0.108,0.0,116.0,,,,,,,[],,,,,,73.6,1.0,i,1.0,True,750.6999999284744,45.0,60.0,40.0,False,,254.81398997190462,[],"[960, 540]",ColorTask,41.0,109.0,,,HRV,HRV_0154,2022-11-30 18:25:13
,wl-html-keyboard-response,117,425648,0.0-7.0-0.0,1.0,117.0,,,,,,,,96871.09999990463,1.0,0,,,,,,,,,,,,,,,,,,,,,,HRV,HRV_0154,2022-11-30 18:25:13
,wl-rdm,118,427757,0.0-8.0-0.0,1.0,118.0,,,,,,,[],,,,,,50.0,0.0,u,0.0,True,728.2999999523163,44.0,60.0,40.0,False,,323.3026956303793,[],"[960, 540]",ColorTask,42.0,1.0,,,HRV,HRV_0154,2022-11-30 18:25:13
,wl-rdm,119,429709,0.0-8.1-0.1,1.0,119.0,,,,,,,[],,,,,,87.9,0.0,u,0.0,True,539.7999999523163,33.0,60.0,40.0,False,,340.93598916836424,[],"[960, 540]",ColorTask,43.0,2.0,,,HRV,HRV_0154,2022-11-30 18:25:13
,wl-rdm,120,432062,0.0-8.2-0.2,1.0,120.0,,,,,,,[],,,,,,50.0,0.0,i,1.0,False,916.2999999523163,55.0,60.0,40.0,False,,372.70289676148457,[],"[960, 540]",ColorTask,42.0,3.0,,,HRV,HRV_0154,2022-11-30 18:25:13
,wl-rdm,121,434114,0.0-8.3-0.3,1.0,121.0,,,,,,,[],,,,,,62.5,0.0,i,1.0,False,686.6000000238419,42.0,60.0,40.0,False,,295.1829530859602,[],"[960, 540]",ColorTask,41.0,4.0,,,HRV,HRV_0154,2022-11-30 18:25:13
,wl-rdm,122,436433,0.0-8.4-0.4,1.0,122.0,,,,,,,[],,,,,,50.0,1.0,i,1.0,True,953.7000000476837,58.0,60.0,40.0,False,,296.1313346912135,[],"[960, 540]",ColorTask,42.0,5.0,,,HRV,HRV_0154,2022-11-30 18:25:13
,wl-rdm,123,439136,0.0-8.5-0.5,1.0,123.0,,,,,,,[],,,,,,53.2,0.0,i,1.0,False,1416.3999999761581,85.0,60.0,40.0,False,,228.60098856616065,[],"[960, 540]",ColorTask,41.0,6.0,,,HRV,HRV_0154,2022-11-30 18:25:13
,wl-rdm,124,441838,0.0-8.6-0.6,1.0,124.0,,,,,,,[],,,,,,50.0,0.0,i,1.0,False,1346.6999999284744,81.0,60.0,40.0,False,,299.4034003301449,[],"[960, 540]",ColorTask,40.0,7.0,,,HRV,HRV_0154,2022-11-30 18:25:13
,wl-rdm,125,444708,0.0-8.7-0.7,1.0,125.0,,,,,,,[],,,,,,62.5,0.0,u,0.0,True,1470.5999999046326,89.0,60.0,40.0,False,,328.6362842575688,[],"[960, 540]",ColorTask,41.0,8.0,,,HRV,HRV_0154,2022-11-30 18:25:13
,wl-rdm,126,447411,0.0-8.8-0.8,1.0,126.0,,,,,,,[],,,,,,50.0,0.0,u,0.0,True,1357.5,82.0,60.0,40.0,False,,269.7320013180455,[],"[960, 540]",ColorTask,42.0,9.0,,,HRV,HRV_0154,2022-11-30 18:25:13
,wl-rdm,127,449896,0.0-8.9-0.9,1.0,127.0,,,,,,,[],,,,,,73.6,1.0,i,1.0,True,1076.0,65.0,60.0,40.0,False,,344.54703488085056,[],"[960, 540]",ColorTask,43.0,10.0,,,HRV,HRV_0154,2022-11-30 18:25:13
,wl-rdm,128,452582,0.0-8.10-0.10,1.0,128.0,,,,,,,[],,,,,,53.2,0.0,u,0.0,True,1416.6000000238419,85.0,60.0,40.0,False,,203.2209502976746,[],"[960, 540]",ColorTask,44.0,11.0,,,HRV,HRV_0154,2022-11-30 18:25:13
,wl-rdm,129,454918,0.0-8.11-0.11,1.0,129.0,,,,,,,[],,,,,,73.6,0.0,u,0.0,True,1051.7000000476837,64.0,60.0,40.0,False,,206.79406377939236,[],"[960, 540]",ColorTask,45.0,12.0,,,HRV,HRV_0154,2022-11-30 18:25:13
,wl-rdm,130,457087,0.0-8.12-0.12,1.0,130.0,,,,,,,[],,,,,,56.4,0.0,u,0.0,True,750.3999999761581,45.0,60.0,40.0,False,,351.1460413341932,[],"[960, 540]",ColorTask,46.0,13.0,,,HRV,HRV_0154,2022-11-30 18:25:13
,wl-rdm,131,459106,0.0-8.13-0.13,1.0,131.0,,,,,,,[],,,,,,73.6,0.0,u,0.0,True,732.3999999761581,44.0,60.0,40.0,False,,225.10279819264747,[],"[960, 540]",ColorTask,47.0,14.0,,,HRV,HRV_0154,2022-11-30 18:25:13
,wl-rdm,132,461358,0.0-8.14-0.14,1.0,132.0,,,,,,,[],,,,,,87.9,1.0,i,1.0,True,823.1000000238419,50.0,60.0,40.0,False,,350.74816625357573,[],"[960, 540]",ColorTask,48.0,15.0,,,HRV,HRV_0154,2022-11-30 18:25:13
,wl-rdm,133,464461,0.0-8.15-0.15,1.0,133.0,,,,,,,[],,,,,,53.2,0.0,i,1.0,False,1699.6000000238419,102.0,60.0,40.0,False,,348.57643001809043,[],"[960, 540]",ColorTask,47.0,16.0,,,HRV,HRV_0154,2022-11-30 18:25:13
,wl-rdm,134,467547,0.0-8.16-0.16,1.0,134.0,,,,,,,[],,,,,,53.2,1.0,u,0.0,False,1653.8999998569489,100.0,60.0,40.0,False,,366.52169991668575,[],"[960, 540]",ColorTask,46.0,17.0,,,HRV,HRV_0154,2022-11-30 18:25:13
,wl-rdm,135,470333,0.0-8.17-0.17,1.0,135.0,,,,,,,[],,,,,,62.5,1.0,i,1.0,True,1436.0,87.0,60.0,40.0,False,,281.15764816540104,[],"[960, 540]",ColorTask,47.0,18.0,,,HRV,HRV_0154,2022-11-30 18:25:13
,wl-rdm,136,472452,0.0-8.18-0.18,1.0,136.0,,,,,,,[],,,,,,62.5,1.0,i,1.0,True,729.5,44.0,60.0,40.0,False,,330.16267829529704,[],"[960, 540]",ColorTask,48.0,19.0,,,HRV,HRV_0154,2022-11-30 18:25:13
,wl-rdm,137,474471,0.0-8.19-0.19,1.0,137.0,,,,,,,[],,,,,,87.9,1.0,i,1.0,True,684.9000000953674,42.0,60.0,40.0,False,,262.0808592335368,[],"[960, 540]",ColorTask,49.0,20.0,,,HRV,HRV_0154,2022-11-30 18:25:13
,wl-rdm,138,476890,0.0-8.20-0.20,1.0,138.0,,,,,,,[],,,,,,73.6,0.0,u,0.0,True,1037.0,63.0,60.0,40.0,False,,300.35566581489115,[],"[960, 540]",ColorTask,50.0,21.0,,,HRV,HRV_0154,2022-11-30 18:25:13
,wl-rdm,139,479559,0.0-8.21-0.21,1.0,139.0,,,,,,,[],,,,,,87.9,0.0,u,0.0,True,1309.2999999523163,79.0,60.0,40.0,False,,296.81099761268496,[],"[960, 540]",ColorTask,51.0,22.0,,,HRV,HRV_0154,2022-11-30 18:25:13
,wl-rdm,140,482179,0.0-8.22-0.22,1.0,140.0,,,,,,,[],,,,,,62.5,1.0,i,1.0,True,1302.2000000476837,79.0,60.0,40.0,False,,235.83477722731263,[],"[960, 540]",ColorTask,52.0,23.0,,,HRV,HRV_0154,2022-11-30 18:25:13
,wl-rdm,141,484881,0.0-8.23-0.23,1.0,141.0,,,,,,,[],,,,,,56.4,0.0,u,0.0,True,1292.5,78.0,60.0,40.0,False,,337.7541429791588,[],"[960, 540]",ColorTask,53.0,24.0,,,HRV,HRV_0154,2022-11-30 18:25:13
,wl-rdm,142,487935,0.0-8.24-0.24,1.0,142.0,,,,,,,[],,,,,,62.5,0.0,u,0.0,True,1694.0,99.0,60.0,40.0,False,,297.30216567678156,[],"[960, 540]",ColorTask,54.0,25.0,,,HRV,HRV_0154,2022-11-30 18:25:13
,wl-rdm,143,490021,0.0-8.25-0.25,1.0,143.0,,,,,,,[],,,,,,87.9,0.0,u,0.0,True,758.0,46.0,60.0,40.0,False,,246.23863188495415,[],"[960, 540]",ColorTask,55.0,26.0,,,HRV,HRV_0154,2022-11-30 18:25:13
,wl-rdm,144,492106,0.0-8.26-0.26,1.0,144.0,,,,,,,[],,,,,,87.9,0.0,u,0.0,True,746.6000000238419,45.0,60.0,40.0,False,,280.2060420505789,[],"[960, 540]",ColorTask,56.0,27.0,,,HRV,HRV_0154,2022-11-30 18:25:13
,wl-rdm,145,494975,0.0-8.27-0.27,1.0,145.0,,,,,,,[],,,,,,56.4,0.0,u,0.0,True,1459.9999998807907,88.0,60.0,40.0,False,,321.9120805209024,[],"[960, 540]",ColorTask,57.0,28.0,,,HRV,HRV_0154,2022-11-30 18:25:13
,wl-rdm,146,497661,0.0-8.28-0.28,1.0,146.0,,,,,,,[],,,,,,62.5,1.0,i,1.0,True,1409.2999999523163,85.0,60.0,40.0,False,,211.68207434397786,[],"[960, 540]",ColorTask,58.0,29.0,,,HRV,HRV_0154,2022-11-30 18:25:13
,wl-rdm,147,499980,0.0-8.29-0.29,1.0,147.0,,,,,,,[],,,,,,62.5,0.0,u,0.0,True,1036.2999999523163,63.0,60.0,40.0,False,,223.85179621426107,[],"[960, 540]",ColorTask,59.0,30.0,,,HRV,HRV_0154,2022-11-30 18:25:13
,wl-rdm,148,502384,0.0-8.30-0.30,1.0,148.0,,,,,,,[],,,,,,62.5,1.0,i,1.0,True,1132.0999999046326,68.0,60.0,40.0,False,,209.97737279816252,[],"[960, 540]",ColorTask,60.0,31.0,,,HRV,HRV_0154,2022-11-30 18:25:13
,wl-rdm,149,504969,0.0-8.31-0.31,1.0,149.0,,,,,,,[],,,,,,53.2,0.0,i,1.0,False,1296.5,78.0,60.0,40.0,False,,228.48167469494788,[],"[960, 540]",ColorTask,59.0,32.0,,,HRV,HRV_0154,2022-11-30 18:25:13
,wl-rdm,150,508105,0.0-8.32-0.32,1.0,150.0,,,,,,,[],,,,,,53.2,0.0,i,1.0,False,1704.6000000238419,103.0,60.0,40.0,False,,350.16760338473773,[],"[960, 540]",ColorTask,58.0,33.0,,,HRV,HRV_0154,2022-11-30 18:25:13
,wl-rdm,151,510274,0.0-8.33-0.33,1.0,151.0,,,,,,,[],,,,,,87.9,0.0,u,0.0,True,716.3000000715256,43.0,60.0,40.0,False,,385.95981997452503,[],"[960, 540]",ColorTask,59.0,34.0,,,HRV,HRV_0154,2022-11-30 18:25:13
,wl-rdm,152,512593,0.0-8.34-0.34,1.0,152.0,,,,,,,[],,,,,,62.5,1.0,i,1.0,True,961.0,58.0,60.0,40.0,False,,290.5274671372394,[],"[960, 540]",ColorTask,60.0,35.0,,,HRV,HRV_0154,2022-11-30 18:25:13
,wl-rdm,153,515079,0.0-8.35-0.35,1.0,153.0,,,,,,,[],,,,,,50.0,0.0,u,0.0,True,1029.1000000238419,62.0,60.0,40.0,False,,394.8123036915804,[],"[960, 540]",ColorTask,61.0,36.0,,,HRV,HRV_0154,2022-11-30 18:25:13
,wl-rdm,154,517715,0.0-8.36-0.36,1.0,154.0,,,,,,,[],,,,,,73.6,0.0,u,0.0,True,1218.7999999523163,74.0,60.0,40.0,False,,347.78689081548214,[],"[960, 540]",ColorTask,62.0,37.0,,,HRV,HRV_0154,2022-11-30 18:25:13
,wl-rdm,155,520167,0.0-8.37-0.37,1.0,155.0,,,,,,,[],,,,,,53.2,0.0,i,1.0,False,1124.8999999761581,68.0,60.0,40.0,False,,261.64641924233666,[],"[960, 540]",ColorTask,61.0,38.0,,,HRV,HRV_0154,2022-11-30 18:25:13
,wl-rdm,156,522836,0.0-8.38-0.38,1.0,156.0,,,,,,,[],,,,,,56.4,0.0,u,0.0,True,1279.5,77.0,60.0,40.0,False,,317.7035108294191,[],"[960, 540]",ColorTask,62.0,39.0,,,HRV,HRV_0154,2022-11-30 18:25:13
,wl-rdm,157,525923,0.0-8.39-0.39,1.0,157.0,,,,,,,[],,,,,,53.2,1.0,i,1.0,True,1774.8999999761581,107.0,60.0,40.0,False,,245.42800766874709,[],"[960, 540]",ColorTask,63.0,40.0,,,HRV,HRV_0154,2022-11-30 18:25:13
,wl-rdm,158,528342,0.0-8.40-0.40,1.0,158.0,,,,,,,[],,,,,,53.2,1.0,i,1.0,True,961.5,58.0,60.0,40.0,False,,398.0751785593303,[],"[960, 540]",ColorTask,64.0,41.0,,,HRV,HRV_0154,2022-11-30 18:25:13
,wl-rdm,159,530478,0.0-8.41-0.41,1.0,159.0,,,,,,,[],,,,,,87.9,1.0,i,1.0,True,722.1000000238419,44.0,60.0,40.0,False,,347.02674727150804,[],"[960, 540]",ColorTask,65.0,42.0,,,HRV,HRV_0154,2022-11-30 18:25:13
,wl-rdm,160,532813,0.0-8.42-0.42,1.0,160.0,,,,,,,[],,,,,,73.6,0.0,u,0.0,True,872.5,53.0,60.0,40.0,False,,388.01970987301206,[],"[960, 540]",ColorTask,66.0,43.0,,,HRV,HRV_0154,2022-11-30 18:25:13
,wl-rdm,161,535551,0.0-8.43-0.43,1.0,161.0,,,,,,,[],,,,,,56.4,1.0,i,1.0,True,1409.1999999284744,85.0,60.0,40.0,False,,259.4056204114886,[],"[960, 540]",ColorTask,67.0,44.0,,,HRV,HRV_0154,2022-11-30 18:25:13
,wl-rdm,162,537618,0.0-8.44-0.44,1.0,162.0,,,,,,,[],,,,,,53.2,0.0,i,1.0,False,768.9000000953674,47.0,60.0,40.0,False,,216.95707328648643,[],"[960, 540]",ColorTask,66.0,45.0,,,HRV,HRV_0154,2022-11-30 18:25:13
,wl-rdm,163,540371,0.0-8.45-0.45,1.0,163.0,,,,,,,[],,,,,,50.0,1.0,u,0.0,False,1416.7000000476837,85.0,60.0,40.0,False,,271.1123159509173,[],"[960, 540]",ColorTask,65.0,46.0,,,HRV,HRV_0154,2022-11-30 18:25:13
,wl-rdm,164,542623,0.0-8.46-0.46,1.0,164.0,,,,,,,[],,,,,,87.9,0.0,u,0.0,True,972.0,59.0,60.0,40.0,False,,215.40792717898347,[],"[960, 540]",ColorTask,66.0,47.0,,,HRV,HRV_0154,2022-11-30 18:25:13
,wl-rdm,165,546544,0.0-8.47-0.47,1.0,165.0,,,,,,,[],,,,,,50.0,1.0,i,1.0,True,2571.0,155.0,60.0,40.0,False,,279.06419277976056,[],"[960, 540]",ColorTask,67.0,48.0,,,HRV,HRV_0154,2022-11-30 18:25:13
,wl-rdm,166,548613,0.0-8.48-0.48,1.0,166.0,,,,,,,[],,,,,,87.9,0.0,u,0.0,True,689.6000000238419,42.0,60.0,40.0,False,,283.54968521770627,[],"[960, 540]",ColorTask,68.0,49.0,,,HRV,HRV_0154,2022-11-30 18:25:13
,wl-rdm,167,550665,0.0-8.49-0.49,1.0,167.0,,,,,,,[],,,,,,73.6,0.0,u,0.0,True,740.8999999761581,45.0,60.0,40.0,False,,249.12734288857365,[],"[960, 540]",ColorTask,69.0,50.0,,,HRV,HRV_0154,2022-11-30 18:25:13
,wl-rdm,168,554168,0.0-8.50-0.50,1.0,168.0,,,,,,,[],,,,,,56.4,1.0,u,0.0,False,2116.2000000476837,127.0,60.0,40.0,False,,325.81707436827037,[],"[960, 540]",ColorTask,68.0,51.0,,,HRV,HRV_0154,2022-11-30 18:25:13
,wl-rdm,169,556521,0.0-8.51-0.51,1.0,169.0,,,,,,,[],,,,,,53.2,0.0,u,0.0,True,899.1000000238419,54.0,60.0,40.0,False,,383.57847525710304,[],"[960, 540]",ColorTask,69.0,52.0,,,HRV,HRV_0154,2022-11-30 18:25:13
,wl-rdm,170,558756,0.0-8.52-0.52,1.0,170.0,,,,,,,[],,,,,,62.5,0.0,u,0.0,True,838.0,51.0,60.0,40.0,False,,323.0636849734694,[],"[960, 540]",ColorTask,70.0,53.0,,,HRV,HRV_0154,2022-11-30 18:25:13
,wl-rdm,171,561142,0.0-8.53-0.53,1.0,171.0,,,,,,,[],,,,,,50.0,0.0,i,1.0,False,929.0,56.0,60.0,40.0,False,,379.96971597364734,[],"[960, 540]",ColorTask,69.0,54.0,,,HRV,HRV_0154,2022-11-30 18:25:13
,wl-rdm,172,563194,0.0-8.54-0.54,1.0,172.0,,,,,,,[],,,,,,56.4,1.0,i,1.0,True,757.2999999523163,46.0,60.0,40.0,False,,218.67249780294605,[],"[960, 540]",ColorTask,70.0,55.0,,,HRV,HRV_0154,2022-11-30 18:25:13
,wl-rdm,173,565329,0.0-8.55-0.55,1.0,173.0,,,,,,,[],,,,,,50.0,1.0,i,1.0,True,682.2999999523163,41.0,60.0,40.0,False,,385.95266992716597,[],"[960, 540]",ColorTask,71.0,56.0,,,HRV,HRV_0154,2022-11-30 18:25:13
,wl-rdm,174,568766,0.0-8.56-0.56,1.0,174.0,,,,,,,[],,,,,,62.5,0.0,i,1.0,False,2166.7000000476837,130.0,60.0,40.0,False,,214.81371009342988,[],"[960, 540]",ColorTask,70.0,57.0,,,HRV,HRV_0154,2022-11-30 18:25:13
,wl-rdm,175,570952,0.0-8.57-0.57,1.0,175.0,,,,,,,[],,,,,,73.6,1.0,i,1.0,True,737.8999999761581,45.0,60.0,40.0,False,,380.6993821220663,[],"[960, 540]",ColorTask,71.0,58.0,,,HRV,HRV_0154,2022-11-30 18:25:13
,wl-rdm,176,573354,0.0-8.58-0.58,1.0,176.0,,,,,,,[],,,,,,53.2,1.0,u,0.0,False,1130.0,68.0,60.0,40.0,False,,210.115809329185,[],"[960, 540]",ColorTask,70.0,59.0,,,HRV,HRV_0154,2022-11-30 18:25:13
,wl-rdm,177,575540,0.0-8.59-0.59,1.0,177.0,,,,,,,[],,,,,,87.9,0.0,u,0.0,True,811.1999999284744,49.0,60.0,40.0,False,,284.34154308216915,[],"[960, 540]",ColorTask,71.0,60.0,,,HRV,HRV_0154,2022-11-30 18:25:13
,wl-rdm,178,577525,0.0-8.60-0.60,1.0,178.0,,,,,,,[],,,,,,53.2,1.0,u,0.0,False,625.8999999761581,38.0,60.0,40.0,False,,295.3776219101504,[],"[960, 540]",ColorTask,70.0,61.0,,,HRV,HRV_0154,2022-11-30 18:25:13
,wl-rdm,179,579594,0.0-8.61-0.61,1.0,179.0,,,,,,,[],,,,,,62.5,1.0,i,1.0,True,729.2999999523163,44.0,60.0,40.0,False,,282.54522104395807,[],"[960, 540]",ColorTask,71.0,62.0,,,HRV,HRV_0154,2022-11-30 18:25:13
,wl-rdm,180,581696,0.0-8.62-0.62,1.0,180.0,,,,,,,[],,,,,,50.0,0.0,i,1.0,False,816.3999999761581,49.0,60.0,40.0,False,,218.96779141118253,[],"[960, 540]",ColorTask,70.0,63.0,,,HRV,HRV_0154,2022-11-30 18:25:13
,wl-rdm,181,583782,0.0-8.63-0.63,1.0,181.0,,,,,,,[],,,,,,73.6,0.0,u,0.0,True,737.0,45.0,60.0,40.0,False,,255.199469270753,[],"[960, 540]",ColorTask,71.0,64.0,,,HRV,HRV_0154,2022-11-30 18:25:13
,wl-rdm,182,585816,0.0-8.64-0.64,1.0,182.0,,,,,,,[],,,,,,53.2,1.0,u,0.0,False,629.1999999284744,38.0,60.0,40.0,False,,349.22224403373275,[],"[960, 540]",ColorTask,70.0,65.0,,,HRV,HRV_0154,2022-11-30 18:25:13
,wl-rdm,183,587836,0.0-8.65-0.65,1.0,183.0,,,,,,,[],,,,,,87.9,1.0,i,1.0,True,714.6999999284744,43.0,60.0,40.0,False,,234.32955341245204,[],"[960, 540]",ColorTask,71.0,66.0,,,HRV,HRV_0154,2022-11-30 18:25:13
,wl-rdm,184,589837,0.0-8.66-0.66,1.0,184.0,,,,,,,[],,,,,,53.2,1.0,i,1.0,True,691.1000000238419,42.0,60.0,40.0,False,,239.8555317968786,[],"[960, 540]",ColorTask,72.0,67.0,,,HRV,HRV_0154,2022-11-30 18:25:13
,wl-rdm,185,592256,0.0-8.67-0.67,1.0,185.0,,,,,,,[],,,,,,62.5,0.0,u,0.0,True,1083.5,65.0,60.0,40.0,False,,263.06257214173735,[],"[960, 540]",ColorTask,73.0,68.0,,,HRV,HRV_0154,2022-11-30 18:25:13
,wl-rdm,186,595526,0.0-8.68-0.68,1.0,186.0,,,,,,,[],,,,,,53.2,1.0,i,1.0,True,1835.7999999523163,107.0,60.0,40.0,False,,351.8041093756499,[],"[960, 540]",ColorTask,74.0,69.0,,,HRV,HRV_0154,2022-11-30 18:25:13
,wl-rdm,187,597929,0.0-8.69-0.69,1.0,187.0,,,,,,,[],,,,,,62.5,0.0,u,0.0,True,1060.8999999761581,64.0,60.0,40.0,False,,273.6489289817455,[],"[960, 540]",ColorTask,75.0,70.0,,,HRV,HRV_0154,2022-11-30 18:25:13
,wl-rdm,188,600065,0.0-8.70-0.70,1.0,188.0,,,,,,,[],,,,,,87.9,1.0,i,1.0,True,801.299999833107,49.0,60.0,40.0,False,,234.17605083463386,[],"[960, 540]",ColorTask,76.0,71.0,,,HRV,HRV_0154,2022-11-30 18:25:13
,wl-rdm,189,602450,0.0-8.71-0.71,1.0,189.0,,,,,,,[],,,,,,50.0,0.0,i,1.0,False,951.7000000476837,58.0,60.0,40.0,False,,361.87553811250996,[],"[960, 540]",ColorTask,75.0,72.0,,,HRV,HRV_0154,2022-11-30 18:25:13
,wl-rdm,190,604886,0.0-8.72-0.72,1.0,190.0,,,,,,,[],,,,,,56.4,1.0,i,1.0,True,1103.0,67.0,60.0,40.0,False,,257.5341694780818,[],"[960, 540]",ColorTask,76.0,73.0,,,HRV,HRV_0154,2022-11-30 18:25:13
,wl-rdm,191,606904,0.0-8.73-0.73,1.0,191.0,,,,,,,[],,,,,,87.9,1.0,i,1.0,True,670.7000000476837,41.0,60.0,40.0,False,,272.55076015287295,[],"[960, 540]",ColorTask,77.0,74.0,,,HRV,HRV_0154,2022-11-30 18:25:13
,wl-rdm,192,608956,0.0-8.74-0.74,1.0,192.0,,,,,,,[],,,,,,50.0,1.0,i,1.0,True,725.3999999761581,44.0,60.0,40.0,False,,251.5456415644308,[],"[960, 540]",ColorTask,78.0,75.0,,,HRV,HRV_0154,2022-11-30 18:25:13
,wl-rdm,193,611876,0.0-8.75-0.75,1.0,193.0,,,,,,,[],,,,,,56.4,0.0,u,0.0,True,1625.8999999761581,98.0,60.0,40.0,False,,225.7370467797712,[],"[960, 540]",ColorTask,79.0,76.0,,,HRV,HRV_0154,2022-11-30 18:25:13
,wl-rdm,194,614111,0.0-8.76-0.76,1.0,194.0,,,,,,,[],,,,,,73.6,1.0,i,1.0,True,945.2000000476837,57.0,60.0,40.0,False,,231.21074842050734,[],"[960, 540]",ColorTask,80.0,77.0,,,HRV,HRV_0154,2022-11-30 18:25:13
,wl-rdm,195,616196,0.0-8.77-0.77,1.0,195.0,,,,,,,[],,,,,,56.4,1.0,i,1.0,True,774.0,47.0,60.0,40.0,False,,242.6123313113962,[],"[960, 540]",ColorTask,81.0,78.0,,,HRV,HRV_0154,2022-11-30 18:25:13
,wl-rdm,196,618299,0.0-8.78-0.78,1.0,196.0,,,,,,,[],,,,,,56.4,1.0,i,1.0,True,828.8999999761581,50.0,60.0,40.0,False,,208.6874376198091,[],"[960, 540]",ColorTask,82.0,79.0,,,HRV,HRV_0154,2022-11-30 18:25:13
,wl-rdm,197,620401,0.0-8.79-0.79,1.0,197.0,,,,,,,[],,,,,,73.6,1.0,i,1.0,True,761.0999999046326,46.0,60.0,40.0,False,,277.1319414878967,[],"[960, 540]",ColorTask,83.0,80.0,,,HRV,HRV_0154,2022-11-30 18:25:13
,wl-rdm,198,622403,0.0-8.80-0.80,1.0,198.0,,,,,,,[],,,,,,56.4,0.0,i,1.0,False,693.3999999761581,42.0,60.0,40.0,False,,236.57836656392791,[],"[960, 540]",ColorTask,82.0,81.0,,,HRV,HRV_0154,2022-11-30 18:25:13
,wl-rdm,199,624805,0.0-8.81-0.81,1.0,199.0,,,,,,,[],,,,,,87.9,0.0,u,0.0,True,1039.5,63.0,60.0,40.0,False,,285.919923999712,[],"[960, 540]",ColorTask,83.0,82.0,,,HRV,HRV_0154,2022-11-30 18:25:13
,wl-rdm,200,627675,0.0-8.82-0.82,1.0,200.0,,,,,,,[],,,,,,56.4,0.0,i,1.0,False,1457.7999999523163,88.0,60.0,40.0,False,,345.7455529004991,[],"[960, 540]",ColorTask,82.0,83.0,,,HRV,HRV_0154,2022-11-30 18:25:13
,wl-rdm,201,629927,0.0-8.83-0.83,1.0,201.0,,,,,,,[],,,,,,50.0,1.0,u,0.0,False,953.0,58.0,60.0,40.0,False,,219.46721086860614,[],"[960, 540]",ColorTask,81.0,84.0,,,HRV,HRV_0154,2022-11-30 18:25:13
,wl-rdm,202,631929,0.0-8.84-0.84,1.0,202.0,,,,,,,[],,,,,,56.4,1.0,i,1.0,True,694.3000000715256,42.0,60.0,40.0,False,,240.24269300952523,[],"[960, 540]",ColorTask,82.0,85.0,,,HRV,HRV_0154,2022-11-30 18:25:13
,wl-rdm,203,635800,0.0-8.85-0.85,1.0,203.0,,,,,,,[],,,,,,50.0,1.0,u,0.0,False,2571.2000000476837,155.0,60.0,40.0,False,,229.056484991726,[],"[960, 540]",ColorTask,81.0,86.0,,,HRV,HRV_0154,2022-11-30 18:25:13
,wl-rdm,204,638119,0.0-8.86-0.86,1.0,204.0,,,,,,,[],,,,,,73.6,1.0,i,1.0,True,956.8999999761581,58.0,60.0,40.0,False,,277.95028251673796,[],"[960, 540]",ColorTask,82.0,87.0,,,HRV,HRV_0154,2022-11-30 18:25:13
,wl-rdm,205,640738,0.0-8.87-0.87,1.0,205.0,,,,,,,[],,,,,,62.5,1.0,u,0.0,False,1158.2999999523163,70.0,60.0,40.0,False,,392.54291012219005,[],"[960, 540]",ColorTask,81.0,88.0,,,HRV,HRV_0154,2022-11-30 18:25:13
,wl-rdm,206,643124,0.0-8.88-0.88,1.0,206.0,,,,,,,[],,,,,,56.4,0.0,u,0.0,True,1104.5,67.0,60.0,40.0,False,,220.55608266950037,[],"[960, 540]",ColorTask,82.0,89.0,,,HRV,HRV_0154,2022-11-30 18:25:13
,wl-rdm,207,645042,0.0-8.89-0.89,1.0,207.0,,,,,,,[],,,,,,87.9,1.0,i,1.0,True,619.2000000476837,38.0,60.0,40.0,False,,219.29902565408742,[],"[960, 540]",ColorTask,83.0,90.0,,,HRV,HRV_0154,2022-11-30 18:25:13
,wl-rdm,208,649063,0.0-8.90-0.90,1.0,208.0,,,,,,,[],,,,,,53.2,1.0,u,0.0,False,2665.100000023842,160.0,60.0,40.0,False,,290.0237424694568,[],"[960, 540]",ColorTask,82.0,91.0,,,HRV,HRV_0154,2022-11-30 18:25:13
,wl-rdm,209,651082,0.0-8.91-0.91,1.0,209.0,,,,,,,[],,,,,,73.6,1.0,i,1.0,True,745.6000000238419,45.0,60.0,40.0,False,,201.78447811713332,[],"[960, 540]",ColorTask,83.0,92.0,,,HRV,HRV_0154,2022-11-30 18:25:13
,wl-rdm,210,653001,0.0-8.92-0.92,1.0,210.0,,,,,,,[],,,,,,73.6,1.0,i,1.0,True,589.0,36.0,60.0,40.0,False,,250.6425657441861,[],"[960, 540]",ColorTask,84.0,93.0,,,HRV,HRV_0154,2022-11-30 18:25:13
,wl-rdm,211,655569,0.0-8.93-0.93,1.0,211.0,,,,,,,[],,,,,,73.6,1.0,i,1.0,True,1266.8999999761581,77.0,60.0,40.0,False,,249.2710901384279,[],"[960, 540]",ColorTask,85.0,94.0,,,HRV,HRV_0154,2022-11-30 18:25:13
,wl-rdm,212,658205,0.0-8.94-0.94,1.0,212.0,,,,,,,[],,,,,,62.5,1.0,u,0.0,False,1305.8999999761581,79.0,60.0,40.0,False,,261.55482446370513,[],"[960, 540]",ColorTask,84.0,95.0,,,HRV,HRV_0154,2022-11-30 18:25:13
,wl-rdm,213,660207,0.0-8.95-0.95,1.0,213.0,,,,,,,[],,,,,,87.9,1.0,i,1.0,True,556.7999999523163,34.0,60.0,40.0,False,,376.81983072493665,[],"[960, 540]",ColorTask,85.0,96.0,,,HRV,HRV_0154,2022-11-30 18:25:13
,wl-rdm,214,662311,0.0-8.96-0.96,1.0,214.0,,,,,,,[],,,,,,73.6,0.0,u,0.0,True,787.7999999523163,48.0,60.0,40.0,False,,244.98309524077888,[],"[960, 540]",ColorTask,86.0,97.0,,,HRV,HRV_0154,2022-11-30 18:25:13
,wl-rdm,215,664512,0.0-8.97-0.97,1.0,215.0,,,,,,,[],,,,,,50.0,0.0,u,0.0,True,898.7000000476837,54.0,60.0,40.0,False,,245.39643592598782,[],"[960, 540]",ColorTask,87.0,98.0,,,HRV,HRV_0154,2022-11-30 18:25:13
,wl-rdm,216,666931,0.0-8.98-0.98,1.0,216.0,,,,,,,[],,,,,,50.0,1.0,u,0.0,False,1033.7000000476837,62.0,60.0,40.0,False,,313.5121635298801,[],"[960, 540]",ColorTask,86.0,99.0,,,HRV,HRV_0154,2022-11-30 18:25:13
,wl-rdm,217,669016,0.0-8.99-0.99,1.0,217.0,,,,,,,[],,,,,,53.2,0.0,i,1.0,False,782.2999999523163,47.0,60.0,40.0,False,,246.55295219670347,[],"[960, 540]",ColorTask,85.0,100.0,,,HRV,HRV_0154,2022-11-30 18:25:13
,wl-rdm,218,671886,0.0-8.100-0.100,1.0,218.0,,,,,,,[],,,,,,56.4,0.0,i,1.0,False,1601.6000000238419,96.0,60.0,40.0,False,,210.72390593544418,[],"[960, 540]",ColorTask,84.0,101.0,,,HRV,HRV_0154,2022-11-30 18:25:13
,wl-rdm,219,674589,0.0-8.101-0.101,1.0,219.0,,,,,,,[],,,,,,73.6,1.0,i,1.0,True,1321.6000000238419,80.0,60.0,40.0,False,,314.5658212574526,[],"[960, 540]",ColorTask,85.0,102.0,,,HRV,HRV_0154,2022-11-30 18:25:13
,wl-rdm,220,676708,0.0-8.102-0.102,1.0,220.0,,,,,,,[],,,,,,87.9,1.0,i,1.0,True,666.6000000238419,40.0,60.0,40.0,False,,397.37558757210473,[],"[960, 540]",ColorTask,86.0,103.0,,,HRV,HRV_0154,2022-11-30 18:25:13
,wl-rdm,221,678928,0.0-8.103-0.103,1.0,221.0,,,,,,,[],,,,,,56.4,1.0,i,1.0,True,819.6000000238419,50.0,60.0,40.0,False,,331.2120620004595,[],"[960, 540]",ColorTask,87.0,104.0,,,HRV,HRV_0154,2022-11-30 18:25:13
,wl-rdm,222,681245,0.0-8.104-0.104,1.0,222.0,,,,,,,[],,,,,,56.4,1.0,i,1.0,True,986.3999999761581,60.0,60.0,40.0,False,,259.95665703161455,[],"[960, 540]",ColorTask,88.0,105.0,,,HRV,HRV_0154,2022-11-30 18:25:13
,wl-rdm,223,684031,0.0-8.105-0.105,1.0,223.0,,,,,,,[],,,,,,62.5,0.0,u,0.0,True,1512.7999999523163,91.0,60.0,40.0,False,,214.132377787912,[],"[960, 540]",ColorTask,89.0,106.0,,,HRV,HRV_0154,2022-11-30 18:25:13
,wl-rdm,224,686818,0.0-8.106-0.106,1.0,224.0,,,,,,,[],,,,,,50.0,1.0,u,0.0,False,1426.7999999523163,86.0,60.0,40.0,False,,286.2171748842961,[],"[960, 540]",ColorTask,88.0,107.0,,,HRV,HRV_0154,2022-11-30 18:25:13
,wl-rdm,225,688836,0.0-8.107-0.107,1.0,225.0,,,,,,,[],,,,,,73.6,0.0,u,0.0,True,585.1000000238419,36.0,60.0,40.0,False,,356.9406920000232,[],"[960, 540]",ColorTask,89.0,108.0,,,HRV,HRV_0154,2022-11-30 18:25:13
,wl-html-button-response,226,691429,0.0-9.0-0.0,,,,,,,,,,2590.600000023842,,0,,,,,,,,,,,,,,,,,,,,<h3>End of this session. Thank you!</h3><br>,['Close window'],HRV,HRV_0154,2022-11-30 18:25:13
