trialN,stimuli,trialStartTime,trialStartTime_UNIX,stimulus1,stimulus2,stimulus1Bid,stimulus2Bid,delta,selected,rt,rt_UNIX,rt_perfnow,receivedResponse,rsp,trialEndTime,trialDuration,trialEndTime_UNIX,trialDuration_UNIX,exp,subjectId,date
0,"[{'imgObject': {}, 'id': 'cheerios', 'src': '/static/foodstim60/cheerios.jpg', 'key': 'u', 'origWidth': 409, 'origHeight': 410, 'width': 409, 'height': 410, 'widthPercent': 0.45, 'rescaleHeight': False, 'trialN': 0, 'loaded': True, 'loadedTime': 2349, 'positionName': 'LEFT', 'positionCoords': [512.6, 335], 'bid': 0.62}, {'imgObject': {}, 'id': 'omelette', 'src': '/static/foodstim60/omelette.jpg', 'key': 'i', 'origWidth': 410, 'origHeight': 409, 'width': 410, 'height': 409, 'widthPercent': 0.45, 'rescaleHeight': False, 'trialN': 0, 'loaded': True, 'loadedTime': 2364.3000000715256, 'positionName': 'RIGHT', 'positionCoords': [998.4, 335.5], 'bid': 0.09}]",2582.100000023842,1669830891799,cheerios,omelette,0.62,0.09,-0.53,cheerios,1183.1000000238419,1183,1183.3999999761581,True,u,4284.800000071526,1702.7000000476837,1669830893501,1702,HRV,HRV_0154,2022-11-30 18:00:27
1,"[{'imgObject': {}, 'id': 'eggs', 'src': '/static/foodstim60/eggs.jpg', 'key': 'u', 'origWidth': 409, 'origHeight': 409, 'width': 409, 'height': 409, 'widthPercent': 0.45, 'rescaleHeight': False, 'trialN': 1, 'loaded': True, 'loadedTime': 2374.7000000476837, 'positionName': 'LEFT', 'positionCoords': [512.6, 335.5], 'bid': 5.8500000000000005}, {'imgObject': {}, 'id': 'edamame', 'src': '/static/foodstim60/edamame.jpg', 'key': 'i', 'origWidth': 409, 'origHeight': 410, 'width': 409, 'height': 410, 'widthPercent': 0.45, 'rescaleHeight': False, 'trialN': 1, 'loaded': True, 'loadedTime': 2383.5, 'positionName': 'RIGHT', 'positionCoords': [998.4, 335], 'bid': 6.21}]",4285.0,1669830893502,eggs,edamame,5.8500000000000005,6.21,0.35999999999999943,eggs,1097,1097,1097.2000000476837,True,u,5899.100000023842,1614.1000000238419,1669830895116,1614,HRV,HRV_0154,2022-11-30 18:00:27
2,"[{'imgObject': {}, 'id': 'bagel plain', 'src': '/static/foodstim60/bagel plain.jpg', 'key': 'u', 'origWidth': 410, 'origHeight': 410, 'width': 410, 'height': 410, 'widthPercent': 0.45, 'rescaleHeight': False, 'trialN': 2, 'loaded': True, 'loadedTime': 2387.2000000476837, 'positionName': 'LEFT', 'positionCoords': [511.6, 335], 'bid': 2.47}, {'imgObject': {}, 'id': 'froot loops w milk', 'src': '/static/foodstim60/froot loops w milk.jpg', 'key': 'i', 'origWidth': 410, 'origHeight': 410, 'width': 410, 'height': 410, 'widthPercent': 0.45, 'rescaleHeight': False, 'trialN': 2, 'loaded': True, 'loadedTime': 2393.3000000715256, 'positionName': 'RIGHT', 'positionCoords': [998.4, 335], 'bid': 0.4}]",5899.300000071526,1669830895116,bagel plain,froot loops w milk,2.47,0.4,-2.0700000000000003,bagel plain,1124.7999999523163,1125,1125.0,True,u,7527.700000047684,1628.3999999761581,1669830896744,1628,HRV,HRV_0154,2022-11-30 18:00:27
3,"[{'imgObject': {}, 'id': 'burrito', 'src': '/static/foodstim60/burrito.jpg', 'key': 'u', 'origWidth': 410, 'origHeight': 410, 'width': 410, 'height': 410, 'widthPercent': 0.45, 'rescaleHeight': False, 'trialN': 3, 'loaded': True, 'loadedTime': 2399.4000000953674, 'positionName': 'LEFT', 'positionCoords': [511.6, 335], 'bid': 0.34}, {'imgObject': {}, 'id': 'omelette', 'src': '/static/foodstim60/omelette.jpg', 'key': 'i', 'origWidth': 410, 'origHeight': 409, 'width': 410, 'height': 409, 'widthPercent': 0.45, 'rescaleHeight': False, 'trialN': 3, 'loaded': True, 'loadedTime': 2364.4000000953674, 'positionName': 'RIGHT', 'positionCoords': [998.4, 335.5], 'bid': 0.09}]",7527.800000071526,1669830896744,burrito,omelette,0.34,0.09,-0.25,burrito,1397.1999999284744,1398,1397.3999999761581,True,u,9445.400000095367,1917.6000000238419,1669830898662,1918,HRV,HRV_0154,2022-11-30 18:00:27
4,"[{'imgObject': {}, 'id': 'salmon', 'src': '/static/foodstim60/salmon.jpg', 'key': 'u', 'origWidth': 410, 'origHeight': 409, 'width': 410, 'height': 409, 'widthPercent': 0.45, 'rescaleHeight': False, 'trialN': 4, 'loaded': True, 'loadedTime': 2399.600000023842, 'positionName': 'LEFT', 'positionCoords': [511.6, 335.5], 'bid': 7.82}, {'imgObject': {}, 'id': 'cheerios', 'src': '/static/foodstim60/cheerios.jpg', 'key': 'i', 'origWidth': 409, 'origHeight': 410, 'width': 409, 'height': 410, 'widthPercent': 0.45, 'rescaleHeight': False, 'trialN': 4, 'loaded': True, 'loadedTime': 2348.5, 'positionName': 'RIGHT', 'positionCoords': [998.4, 335], 'bid': 0.62}]",9445.600000023842,1669830898662,salmon,cheerios,7.82,0.62,-7.2,salmon,848.5,849,848.8000000715256,True,u,10802.700000047684,1357.1000000238419,1669830900019,1357,HRV,HRV_0154,2022-11-30 18:00:27
5,"[{'imgObject': {}, 'id': 'strawberries', 'src': '/static/foodstim60/strawberries.jpg', 'key': 'u', 'origWidth': 410, 'origHeight': 410, 'width': 410, 'height': 410, 'widthPercent': 0.45, 'rescaleHeight': False, 'trialN': 5, 'loaded': True, 'loadedTime': 2410.9000000953674, 'positionName': 'LEFT', 'positionCoords': [511.6, 335], 'bid': 7.08}, {'imgObject': {}, 'id': 'cherries', 'src': '/static/foodstim60/cherries.jpg', 'key': 'i', 'origWidth': 410, 'origHeight': 411, 'width': 410, 'height': 411, 'widthPercent': 0.45, 'rescaleHeight': False, 'trialN': 5, 'loaded': True, 'loadedTime': 2414.4000000953674, 'positionName': 'RIGHT', 'positionCoords': [998.4, 334.5], 'bid': 9.9}]",10802.900000095367,1669830900019,strawberries,cherries,7.08,9.9,2.8200000000000003,strawberries,1157.2999999523163,1158,1157.5999999046326,True,u,12475.700000047684,1672.7999999523163,1669830901692,1673,HRV,HRV_0154,2022-11-30 18:00:27
6,"[{'imgObject': {}, 'id': 'apple slices', 'src': '/static/foodstim60/apple slices.jpg', 'key': 'u', 'origWidth': 409, 'origHeight': 410, 'width': 409, 'height': 410, 'widthPercent': 0.45, 'rescaleHeight': False, 'trialN': 6, 'loaded': True, 'loadedTime': 2418.5, 'positionName': 'LEFT', 'positionCoords': [512.6, 335], 'bid': 9.93}, {'imgObject': {}, 'id': 'orange slices', 'src': '/static/foodstim60/orange slices.jpg', 'key': 'i', 'origWidth': 409, 'origHeight': 410, 'width': 409, 'height': 410, 'widthPercent': 0.45, 'rescaleHeight': False, 'trialN': 6, 'loaded': True, 'loadedTime': 2425, 'positionName': 'RIGHT', 'positionCoords': [998.4, 335], 'bid': 9.9}]",12475.800000071526,1669830901692,apple slices,orange slices,9.93,9.9,-0.02999999999999936,orange slices,835.1999999284744,836,835.3999999761581,True,i,13820.900000095367,1345.1000000238419,1669830903037,1345,HRV,HRV_0154,2022-11-30 18:00:27
7,"[{'imgObject': {}, 'id': 'cherry tomato', 'src': '/static/foodstim60/cherry tomato.jpg', 'key': 'u', 'origWidth': 410, 'origHeight': 410, 'width': 410, 'height': 410, 'widthPercent': 0.45, 'rescaleHeight': False, 'trialN': 7, 'loaded': True, 'loadedTime': 2427.9000000953674, 'positionName': 'LEFT', 'positionCoords': [511.6, 335], 'bid': 0.64}, {'imgObject': {}, 'id': 'hashbrowns', 'src': '/static/foodstim60/hashbrowns.jpg', 'key': 'i', 'origWidth': 411, 'origHeight': 410, 'width': 411, 'height': 410, 'widthPercent': 0.45, 'rescaleHeight': False, 'trialN': 7, 'loaded': True, 'loadedTime': 2436.8000000715256, 'positionName': 'RIGHT', 'positionCoords': [998.4, 335], 'bid': 0.51}]",13821.0,1669830903038,cherry tomato,hashbrowns,0.64,0.51,-0.13,cherry tomato,1067.1000000238419,1067,1067.2000000476837,True,u,15398.300000071526,1577.3000000715256,1669830904615,1577,HRV,HRV_0154,2022-11-30 18:00:27
8,"[{'imgObject': {}, 'id': 'kiwi', 'src': '/static/foodstim60/kiwi.jpg', 'key': 'u', 'origWidth': 410, 'origHeight': 410, 'width': 410, 'height': 410, 'widthPercent': 0.45, 'rescaleHeight': False, 'trialN': 8, 'loaded': True, 'loadedTime': 2440.8000000715256, 'positionName': 'LEFT', 'positionCoords': [511.6, 335], 'bid': 1.21}, {'imgObject': {}, 'id': 'mashed potato', 'src': '/static/foodstim60/mashed potato.jpg', 'key': 'i', 'origWidth': 409, 'origHeight': 409, 'width': 409, 'height': 409, 'widthPercent': 0.45, 'rescaleHeight': False, 'trialN': 8, 'loaded': True, 'loadedTime': 2444.100000023842, 'positionName': 'RIGHT', 'positionCoords': [998.4, 335.5], 'bid': 0.28}]",15398.400000095367,1669830904615,kiwi,mashed potato,1.21,0.28,-0.9299999999999999,kiwi,1441.5999999046326,1442,1441.8999999761581,True,u,17356.0,1957.5999999046326,1669830906573,1958,HRV,HRV_0154,2022-11-30 18:00:27
9,"[{'imgObject': {}, 'id': 'chickenfingers', 'src': '/static/foodstim60/chickenfingers.jpg', 'key': 'u', 'origWidth': 410, 'origHeight': 410, 'width': 410, 'height': 410, 'widthPercent': 0.45, 'rescaleHeight': False, 'trialN': 9, 'loaded': True, 'loadedTime': 2452.8000000715256, 'positionName': 'LEFT', 'positionCoords': [511.6, 335], 'bid': 9.83}, {'imgObject': {}, 'id': 'popsicles', 'src': '/static/foodstim60/popsicles.jpg', 'key': 'i', 'origWidth': 410, 'origHeight': 410, 'width': 410, 'height': 410, 'widthPercent': 0.45, 'rescaleHeight': False, 'trialN': 9, 'loaded': True, 'loadedTime': 2581.7000000476837, 'positionName': 'RIGHT', 'positionCoords': [998.4, 335], 'bid': 9.56}]",17356.300000071526,1669830906573,chickenfingers,popsicles,9.83,9.56,-0.2699999999999996,popsicles,703.1000000238419,703,703.2999999523163,True,i,18571.200000047684,1214.8999999761581,1669830907788,1215,HRV,HRV_0154,2022-11-30 18:00:27
10,"[{'imgObject': {}, 'id': 'raisin bran w milk', 'src': '/static/foodstim60/raisin bran w milk.jpg', 'key': 'u', 'origWidth': 411, 'origHeight': 411, 'width': 411, 'height': 411, 'widthPercent': 0.45, 'rescaleHeight': False, 'trialN': 10, 'loaded': True, 'loadedTime': 2456.8000000715256, 'positionName': 'LEFT', 'positionCoords': [510.6, 334.5], 'bid': 0.41}, {'imgObject': {}, 'id': 'froot loops w milk', 'src': '/static/foodstim60/froot loops w milk.jpg', 'key': 'i', 'origWidth': 410, 'origHeight': 410, 'width': 410, 'height': 410, 'widthPercent': 0.45, 'rescaleHeight': False, 'trialN': 10, 'loaded': True, 'loadedTime': 2393.7000000476837, 'positionName': 'RIGHT', 'positionCoords': [998.4, 335], 'bid': 0.4}]",18571.400000095367,1669830907788,raisin bran w milk,froot loops w milk,0.41,0.4,-0.009999999999999953,raisin bran w milk,1538.6999999284744,1539,1538.8999999761581,True,u,20625.100000023842,2053.6999999284744,1669830909842,2054,HRV,HRV_0154,2022-11-30 18:00:27
11,"[{'imgObject': {}, 'id': 'fried eggs', 'src': '/static/foodstim60/fried eggs.jpg', 'key': 'u', 'origWidth': 410, 'origHeight': 410, 'width': 410, 'height': 410, 'widthPercent': 0.45, 'rescaleHeight': False, 'trialN': 11, 'loaded': True, 'loadedTime': 2459.9000000953674, 'positionName': 'LEFT', 'positionCoords': [511.6, 335], 'bid': 0.32}, {'imgObject': {}, 'id': 'eggsalad', 'src': '/static/foodstim60/eggsalad.jpg', 'key': 'i', 'origWidth': 410, 'origHeight': 409, 'width': 410, 'height': 409, 'widthPercent': 0.45, 'rescaleHeight': False, 'trialN': 11, 'loaded': True, 'loadedTime': 2466.4000000953674, 'positionName': 'RIGHT', 'positionCoords': [998.4, 335.5], 'bid': 0.08}]",20625.200000047684,1669830909842,fried eggs,eggsalad,0.32,0.08,-0.24,eggsalad,1128.7999999523163,1129,1129.1000000238419,True,i,22255.5,1630.2999999523163,1669830911472,1630,HRV,HRV_0154,2022-11-30 18:00:27
12,"[{'imgObject': {}, 'id': 'strawberries', 'src': '/static/foodstim60/strawberries.jpg', 'key': 'u', 'origWidth': 410, 'origHeight': 410, 'width': 410, 'height': 410, 'widthPercent': 0.45, 'rescaleHeight': False, 'trialN': 12, 'loaded': True, 'loadedTime': 2408.4000000953674, 'positionName': 'LEFT', 'positionCoords': [511.6, 335], 'bid': 7.08}, {'imgObject': {}, 'id': 'bagel and cc', 'src': '/static/foodstim60/bagel and cc.jpg', 'key': 'i', 'origWidth': 410, 'origHeight': 410, 'width': 410, 'height': 410, 'widthPercent': 0.45, 'rescaleHeight': False, 'trialN': 12, 'loaded': True, 'loadedTime': 2466.5, 'positionName': 'RIGHT', 'positionCoords': [998.4, 335], 'bid': 2.54}]",22255.600000023842,1669830911472,strawberries,bagel and cc,7.08,2.54,-4.54,strawberries,1130.6000000238419,1131,1130.8000000715256,True,u,23901.5,1645.8999999761581,1669830913118,1646,HRV,HRV_0154,2022-11-30 18:00:27
13,"[{'imgObject': {}, 'id': 'cherry tomato', 'src': '/static/foodstim60/cherry tomato.jpg', 'key': 'u', 'origWidth': 410, 'origHeight': 410, 'width': 410, 'height': 410, 'widthPercent': 0.45, 'rescaleHeight': False, 'trialN': 13, 'loaded': True, 'loadedTime': 2431.9000000953674, 'positionName': 'LEFT', 'positionCoords': [511.6, 335], 'bid': 0.64}, {'imgObject': {}, 'id': 'granola w milk', 'src': '/static/foodstim60/granola w milk.jpg', 'key': 'i', 'origWidth': 410, 'origHeight': 410, 'width': 410, 'height': 410, 'widthPercent': 0.45, 'rescaleHeight': False, 'trialN': 13, 'loaded': True, 'loadedTime': 2473.5, 'positionName': 'RIGHT', 'positionCoords': [998.4, 335], 'bid': 0.76}]",23901.700000047684,1669830913118,cherry tomato,granola w milk,0.64,0.76,0.12,cherry tomato,1343.3999999761581,1344,1343.5,True,u,25753.300000071526,1851.6000000238419,1669830914970,1852,HRV,HRV_0154,2022-11-30 18:00:27
14,"[{'imgObject': {}, 'id': 'seaweed', 'src': '/static/foodstim60/seaweed.jpg', 'key': 'u', 'origWidth': 410, 'origHeight': 410, 'width': 410, 'height': 410, 'widthPercent': 0.45, 'rescaleHeight': False, 'trialN': 14, 'loaded': True, 'loadedTime': 2477, 'positionName': 'LEFT', 'positionCoords': [511.6, 335], 'bid': 0.1}, {'imgObject': {}, 'id': 'olives', 'src': '/static/foodstim60/olives.jpg', 'key': 'i', 'origWidth': 410, 'origHeight': 410, 'width': 410, 'height': 410, 'widthPercent': 0.45, 'rescaleHeight': False, 'trialN': 14, 'loaded': True, 'loadedTime': 2479.100000023842, 'positionName': 'RIGHT', 'positionCoords': [998.4, 335], 'bid': 0.13}]",25753.300000071526,1669830914970,seaweed,olives,0.1,0.13,0.03,olives,860.8999999761581,861,861.1000000238419,True,i,27122.400000095367,1369.1000000238419,1669830916339,1369,HRV,HRV_0154,2022-11-30 18:00:27
15,"[{'imgObject': {}, 'id': 'steak', 'src': '/static/foodstim60/steak.jpg', 'key': 'u', 'origWidth': 410, 'origHeight': 410, 'width': 410, 'height': 410, 'widthPercent': 0.45, 'rescaleHeight': False, 'trialN': 15, 'loaded': True, 'loadedTime': 2482.7000000476837, 'positionName': 'LEFT', 'positionCoords': [511.6, 335], 'bid': 9.92}, {'imgObject': {}, 'id': 'pear', 'src': '/static/foodstim60/pear.jpg', 'key': 'i', 'origWidth': 411, 'origHeight': 410, 'width': 411, 'height': 410, 'widthPercent': 0.45, 'rescaleHeight': False, 'trialN': 15, 'loaded': True, 'loadedTime': 2489.5, 'positionName': 'RIGHT', 'positionCoords': [998.4, 335], 'bid': 9.95}]",27122.600000023842,1669830916339,steak,pear,9.92,9.95,0.02999999999999936,pear,795.3999999761581,796,795.7000000476837,True,i,28431.700000047684,1309.1000000238419,1669830917648,1309,HRV,HRV_0154,2022-11-30 18:00:27
16,"[{'imgObject': {}, 'id': 'fried eggs', 'src': '/static/foodstim60/fried eggs.jpg', 'key': 'u', 'origWidth': 410, 'origHeight': 410, 'width': 410, 'height': 410, 'widthPercent': 0.45, 'rescaleHeight': False, 'trialN': 16, 'loaded': True, 'loadedTime': 2462.600000023842, 'positionName': 'LEFT', 'positionCoords': [511.6, 335], 'bid': 0.32}, {'imgObject': {}, 'id': 'mashed potato', 'src': '/static/foodstim60/mashed potato.jpg', 'key': 'i', 'origWidth': 409, 'origHeight': 409, 'width': 409, 'height': 409, 'widthPercent': 0.45, 'rescaleHeight': False, 'trialN': 16, 'loaded': True, 'loadedTime': 2447.2000000476837, 'positionName': 'RIGHT', 'positionCoords': [998.4, 335.5], 'bid': 0.28}]",28431.900000095367,1669830917648,fried eggs,mashed potato,0.32,0.28,-0.03999999999999998,mashed potato,1138.0999999046326,1139,1138.3999999761581,True,i,30075.100000023842,1643.1999999284744,1669830919292,1644,HRV,HRV_0154,2022-11-30 18:00:27
17,"[{'imgObject': {}, 'id': 'cherries', 'src': '/static/foodstim60/cherries.jpg', 'key': 'u', 'origWidth': 410, 'origHeight': 411, 'width': 410, 'height': 411, 'widthPercent': 0.45, 'rescaleHeight': False, 'trialN': 17, 'loaded': True, 'loadedTime': 2414.8000000715256, 'positionName': 'LEFT', 'positionCoords': [511.6, 334.5], 'bid': 9.9}, {'imgObject': {}, 'id': 'blackbeanswithrice', 'src': '/static/foodstim60/blackbeanswithrice.jpg', 'key': 'i', 'origWidth': 410, 'origHeight': 410, 'width': 410, 'height': 410, 'widthPercent': 0.45, 'rescaleHeight': False, 'trialN': 17, 'loaded': True, 'loadedTime': 2493.3000000715256, 'positionName': 'RIGHT', 'positionCoords': [998.4, 335], 'bid': 1.41}]",30075.300000071526,1669830919292,cherries,blackbeanswithrice,9.9,1.41,-8.49,cherries,912.7999999523163,913,913.0,True,u,31506.400000095367,1431.1000000238419,1669830920723,1431,HRV,HRV_0154,2022-11-30 18:00:27
18,"[{'imgObject': {}, 'id': 'chickenfingers', 'src': '/static/foodstim60/chickenfingers.jpg', 'key': 'u', 'origWidth': 410, 'origHeight': 410, 'width': 410, 'height': 410, 'widthPercent': 0.45, 'rescaleHeight': False, 'trialN': 18, 'loaded': True, 'loadedTime': 2450.3000000715256, 'positionName': 'LEFT', 'positionCoords': [511.6, 335], 'bid': 9.83}, {'imgObject': {}, 'id': 'eggs', 'src': '/static/foodstim60/eggs.jpg', 'key': 'i', 'origWidth': 409, 'origHeight': 409, 'width': 409, 'height': 409, 'widthPercent': 0.45, 'rescaleHeight': False, 'trialN': 18, 'loaded': True, 'loadedTime': 2371.5, 'positionName': 'RIGHT', 'positionCoords': [998.4, 335.5], 'bid': 5.8500000000000005}]",31506.600000023842,1669830920723,chickenfingers,eggs,9.83,5.8500000000000005,-3.9799999999999995,chickenfingers,1700.6000000238419,1701,1700.7000000476837,True,u,33724.5,2217.899999976158,1669830922941,2218,HRV,HRV_0154,2022-11-30 18:00:27
19,"[{'imgObject': {}, 'id': 'grilled chicken strips', 'src': '/static/foodstim60/grilled chicken strips.jpg', 'key': 'u', 'origWidth': 410, 'origHeight': 411, 'width': 410, 'height': 411, 'widthPercent': 0.45, 'rescaleHeight': False, 'trialN': 19, 'loaded': True, 'loadedTime': 2496.4000000953674, 'positionName': 'LEFT', 'positionCoords': [511.6, 334.5], 'bid': 7.53}, {'imgObject': {}, 'id': 'salmon', 'src': '/static/foodstim60/salmon.jpg', 'key': 'i', 'origWidth': 410, 'origHeight': 409, 'width': 410, 'height': 409, 'widthPercent': 0.45, 'rescaleHeight': False, 'trialN': 19, 'loaded': True, 'loadedTime': 2400.3000000715256, 'positionName': 'RIGHT', 'positionCoords': [998.4, 335.5], 'bid': 7.82}]",33724.60000002384,1669830922941,grilled chicken strips,salmon,7.53,7.82,0.29000000000000004,grilled chicken strips,1611.8999999761581,1612,1612.1000000238419,True,u,35849.90000009537,2125.3000000715256,1669830925066,2125,HRV,HRV_0154,2022-11-30 18:00:27
20,"[{'imgObject': {}, 'id': 'mac & cheese', 'src': '/static/foodstim60/mac & cheese.jpg', 'key': 'u', 'origWidth': 410, 'origHeight': 410, 'width': 410, 'height': 410, 'widthPercent': 0.45, 'rescaleHeight': False, 'trialN': 20, 'loaded': True, 'loadedTime': 2496.5, 'positionName': 'LEFT', 'positionCoords': [511.6, 335], 'bid': 0.25}, {'imgObject': {}, 'id': 'turkey sandwich', 'src': '/static/foodstim60/turkey sandwich.jpg', 'key': 'i', 'origWidth': 409, 'origHeight': 409, 'width': 409, 'height': 409, 'widthPercent': 0.45, 'rescaleHeight': False, 'trialN': 20, 'loaded': True, 'loadedTime': 2504.5, 'positionName': 'RIGHT', 'positionCoords': [998.4, 335.5], 'bid': 1.18}]",35850.0,1669830925067,mac & cheese,turkey sandwich,0.25,1.18,0.9299999999999999,turkey sandwich,1163,1163,1163.2000000476837,True,i,37525.5,1675.5,1669830926742,1675,HRV,HRV_0154,2022-11-30 18:00:27
21,"[{'imgObject': {}, 'id': 'roastedpotatoes', 'src': '/static/foodstim60/roastedpotatoes.jpg', 'key': 'u', 'origWidth': 409, 'origHeight': 410, 'width': 409, 'height': 410, 'widthPercent': 0.45, 'rescaleHeight': False, 'trialN': 21, 'loaded': True, 'loadedTime': 2507.8000000715256, 'positionName': 'LEFT', 'positionCoords': [512.6, 335], 'bid': 0.32}, {'imgObject': {}, 'id': 'turkeysandwich', 'src': '/static/foodstim60/turkeysandwich.jpg', 'key': 'i', 'origWidth': 409, 'origHeight': 409, 'width': 409, 'height': 409, 'widthPercent': 0.45, 'rescaleHeight': False, 'trialN': 21, 'loaded': True, 'loadedTime': 2511.3000000715256, 'positionName': 'RIGHT', 'positionCoords': [998.4, 335.5], 'bid': 0.29}]",37525.60000002384,1669830926742,roastedpotatoes,turkeysandwich,0.32,0.29,-0.030000000000000027,turkeysandwich,1560.5,1561,1560.6000000238419,True,i,39601.300000071526,2075.7000000476837,1669830928818,2076,HRV,HRV_0154,2022-11-30 18:00:27
22,"[{'imgObject': {}, 'id': 'popsicles', 'src': '/static/foodstim60/popsicles.jpg', 'key': 'u', 'origWidth': 410, 'origHeight': 410, 'width': 410, 'height': 410, 'widthPercent': 0.45, 'rescaleHeight': False, 'trialN': 22, 'loaded': True, 'loadedTime': 2581.600000023842, 'positionName': 'LEFT', 'positionCoords': [511.6, 335], 'bid': 9.56}, {'imgObject': {}, 'id': 'tacos', 'src': '/static/foodstim60/tacos.jpg', 'key': 'i', 'origWidth': 411, 'origHeight': 411, 'width': 411, 'height': 411, 'widthPercent': 0.45, 'rescaleHeight': False, 'trialN': 22, 'loaded': True, 'loadedTime': 2517.4000000953674, 'positionName': 'RIGHT', 'positionCoords': [998.4, 334.5], 'bid': 4.04}]",39601.5,1669830928818,popsicles,tacos,9.56,4.04,-5.5200000000000005,popsicles,1027.6000000238419,1028,1027.9000000953674,True,u,41146.700000047684,1545.2000000476837,1669830930363,1545,HRV,HRV_0154,2022-11-30 18:00:27
23,"[{'imgObject': {}, 'id': 'raspberries', 'src': '/static/foodstim60/raspberries.jpg', 'key': 'u', 'origWidth': 411, 'origHeight': 411, 'width': 411, 'height': 411, 'widthPercent': 0.45, 'rescaleHeight': False, 'trialN': 23, 'loaded': True, 'loadedTime': 2520.5, 'positionName': 'LEFT', 'positionCoords': [510.6, 334.5], 'bid': 5.9}, {'imgObject': {}, 'id': 'blueberries', 'src': '/static/foodstim60/blueberries.jpg', 'key': 'i', 'origWidth': 411, 'origHeight': 411, 'width': 411, 'height': 411, 'widthPercent': 0.45, 'rescaleHeight': False, 'trialN': 23, 'loaded': True, 'loadedTime': 2521.5, 'positionName': 'RIGHT', 'positionCoords': [998.4, 334.5], 'bid': 5.69}]",41146.800000071526,1669830930363,raspberries,blueberries,5.9,5.69,-0.20999999999999996,blueberries,1256.2999999523163,1257,1256.5,True,i,42918.300000071526,1771.5,1669830932135,1772,HRV,HRV_0154,2022-11-30 18:00:27
24,"[{'imgObject': {}, 'id': 'apple slices', 'src': '/static/foodstim60/apple slices.jpg', 'key': 'u', 'origWidth': 409, 'origHeight': 410, 'width': 409, 'height': 410, 'widthPercent': 0.45, 'rescaleHeight': False, 'trialN': 24, 'loaded': True, 'loadedTime': 2421.3000000715256, 'positionName': 'LEFT', 'positionCoords': [512.6, 335], 'bid': 9.93}, {'imgObject': {}, 'id': 'chicken nuggets2', 'src': '/static/foodstim60/chicken nuggets2.jpg', 'key': 'i', 'origWidth': 410, 'origHeight': 409, 'width': 410, 'height': 409, 'widthPercent': 0.45, 'rescaleHeight': False, 'trialN': 24, 'loaded': True, 'loadedTime': 2525.9000000953674, 'positionName': 'RIGHT', 'positionCoords': [998.4, 335.5], 'bid': 9.87}]",42918.5,1669830932135,apple slices,chicken nuggets2,9.93,9.87,-0.0600000000000005,chicken nuggets2,1047.5,1048,1047.8000000715256,True,i,44479.800000071526,1561.3000000715256,1669830933696,1561,HRV,HRV_0154,2022-11-30 18:00:27
25,"[{'imgObject': {}, 'id': 'mango', 'src': '/static/foodstim60/mango.jpg', 'key': 'u', 'origWidth': 411, 'origHeight': 411, 'width': 411, 'height': 411, 'widthPercent': 0.45, 'rescaleHeight': False, 'trialN': 25, 'loaded': True, 'loadedTime': 2530.2000000476837, 'positionName': 'LEFT', 'positionCoords': [510.6, 334.5], 'bid': 1.4}, {'imgObject': {}, 'id': 'bagel and cc', 'src': '/static/foodstim60/bagel and cc.jpg', 'key': 'i', 'origWidth': 410, 'origHeight': 410, 'width': 410, 'height': 410, 'widthPercent': 0.45, 'rescaleHeight': False, 'trialN': 25, 'loaded': True, 'loadedTime': 2467.3000000715256, 'positionName': 'RIGHT', 'positionCoords': [998.4, 335], 'bid': 2.54}]",44479.90000009537,1669830933696,mango,bagel and cc,1.4,2.54,1.1400000000000001,mango,2461.399999976158,2462,2461.5999999046326,True,u,47450.5,2970.5999999046326,1669830936667,2971,HRV,HRV_0154,2022-11-30 18:00:27
26,"[{'imgObject': {}, 'id': 'blueberries', 'src': '/static/foodstim60/blueberries.jpg', 'key': 'u', 'origWidth': 411, 'origHeight': 411, 'width': 411, 'height': 411, 'widthPercent': 0.45, 'rescaleHeight': False, 'trialN': 26, 'loaded': True, 'loadedTime': 2524.5, 'positionName': 'LEFT', 'positionCoords': [510.6, 334.5], 'bid': 5.69}, {'imgObject': {}, 'id': 'grilled chicken strips', 'src': '/static/foodstim60/grilled chicken strips.jpg', 'key': 'i', 'origWidth': 410, 'origHeight': 411, 'width': 410, 'height': 411, 'widthPercent': 0.45, 'rescaleHeight': False, 'trialN': 26, 'loaded': True, 'loadedTime': 2493.9000000953674, 'positionName': 'RIGHT', 'positionCoords': [998.4, 334.5], 'bid': 7.53}]",47450.60000002384,1669830936667,blueberries,grilled chicken strips,5.69,7.53,1.8399999999999999,grilled chicken strips,1120.5,1121,1120.7000000476837,True,i,49079.40000009537,1628.8000000715256,1669830938296,1629,HRV,HRV_0154,2022-11-30 18:00:27
27,"[{'imgObject': {}, 'id': 'grilled chicken strips', 'src': '/static/foodstim60/grilled chicken strips.jpg', 'key': 'u', 'origWidth': 410, 'origHeight': 411, 'width': 410, 'height': 411, 'widthPercent': 0.45, 'rescaleHeight': False, 'trialN': 27, 'loaded': True, 'loadedTime': 2496, 'positionName': 'LEFT', 'positionCoords': [511.6, 334.5], 'bid': 7.53}, {'imgObject': {}, 'id': 'hotdog w must', 'src': '/static/foodstim60/hotdog w must.jpg', 'key': 'i', 'origWidth': 409, 'origHeight': 409, 'width': 409, 'height': 409, 'widthPercent': 0.45, 'rescaleHeight': False, 'trialN': 27, 'loaded': True, 'loadedTime': 2533.5, 'positionName': 'RIGHT', 'positionCoords': [998.4, 335.5], 'bid': 7}]",49079.60000002384,1669830938296,grilled chicken strips,hotdog w must,7.53,7.0,-0.5300000000000002,hotdog w must,1088.3999999761581,1089,1088.6000000238419,True,i,50674.90000009537,1595.3000000715256,1669830939891,1595,HRV,HRV_0154,2022-11-30 18:00:27
28,"[{'imgObject': {}, 'id': 'eggsalad', 'src': '/static/foodstim60/eggsalad.jpg', 'key': 'u', 'origWidth': 410, 'origHeight': 409, 'width': 410, 'height': 409, 'widthPercent': 0.45, 'rescaleHeight': False, 'trialN': 28, 'loaded': True, 'loadedTime': 2466.100000023842, 'positionName': 'LEFT', 'positionCoords': [511.6, 335.5], 'bid': 0.08}, {'imgObject': {}, 'id': 'raisin bran w milk', 'src': '/static/foodstim60/raisin bran w milk.jpg', 'key': 'i', 'origWidth': 411, 'origHeight': 411, 'width': 411, 'height': 411, 'widthPercent': 0.45, 'rescaleHeight': False, 'trialN': 28, 'loaded': True, 'loadedTime': 2456.9000000953674, 'positionName': 'RIGHT', 'positionCoords': [998.4, 334.5], 'bid': 0.41}]",50675.10000002384,1669830939892,eggsalad,raisin bran w milk,0.08,0.41,0.32999999999999996,raisin bran w milk,1657.8999999761581,1658,1658.2000000476837,True,i,52846.90000009537,2171.8000000715256,1669830942063,2171,HRV,HRV_0154,2022-11-30 18:00:27
29,"[{'imgObject': {}, 'id': 'salmon', 'src': '/static/foodstim60/salmon.jpg', 'key': 'u', 'origWidth': 410, 'origHeight': 409, 'width': 410, 'height': 409, 'widthPercent': 0.45, 'rescaleHeight': False, 'trialN': 29, 'loaded': True, 'loadedTime': 2400.5, 'positionName': 'LEFT', 'positionCoords': [511.6, 335.5], 'bid': 7.82}, {'imgObject': {}, 'id': 'strawberries', 'src': '/static/foodstim60/strawberries.jpg', 'key': 'i', 'origWidth': 410, 'origHeight': 410, 'width': 410, 'height': 410, 'widthPercent': 0.45, 'rescaleHeight': False, 'trialN': 29, 'loaded': True, 'loadedTime': 2404.4000000953674, 'positionName': 'RIGHT', 'positionCoords': [998.4, 335], 'bid': 7.08}]",52847.10000002384,1669830942064,salmon,strawberries,7.82,7.08,-0.7400000000000002,salmon,1287,1287,1287.2000000476837,True,u,54652.5,1805.3999999761581,1669830943869,1805,HRV,HRV_0154,2022-11-30 18:00:27
30,"[{'imgObject': {}, 'id': 'hotdog w must', 'src': '/static/foodstim60/hotdog w must.jpg', 'key': 'u', 'origWidth': 409, 'origHeight': 409, 'width': 409, 'height': 409, 'widthPercent': 0.45, 'rescaleHeight': False, 'trialN': 30, 'loaded': True, 'loadedTime': 2530.5, 'positionName': 'LEFT', 'positionCoords': [512.6, 335.5], 'bid': 7}, {'imgObject': {}, 'id': 'veggieswithdip', 'src': '/static/foodstim60/veggieswithdip.jpg', 'key': 'i', 'origWidth': 409, 'origHeight': 409, 'width': 409, 'height': 409, 'widthPercent': 0.45, 'rescaleHeight': False, 'trialN': 30, 'loaded': True, 'loadedTime': 2537.7000000476837, 'positionName': 'RIGHT', 'positionCoords': [998.4, 335.5], 'bid': 5.0200000000000005}]",54652.60000002384,1669830943869,hotdog w must,veggieswithdip,7.0,5.0200000000000005,-1.9799999999999995,hotdog w must,959.3999999761581,960,959.6000000238419,True,u,56127.800000071526,1475.2000000476837,1669830945344,1475,HRV,HRV_0154,2022-11-30 18:00:27
31,"[{'imgObject': {}, 'id': 'hashbrowns', 'src': '/static/foodstim60/hashbrowns.jpg', 'key': 'u', 'origWidth': 411, 'origHeight': 410, 'width': 411, 'height': 410, 'widthPercent': 0.45, 'rescaleHeight': False, 'trialN': 31, 'loaded': True, 'loadedTime': 2436.2000000476837, 'positionName': 'LEFT', 'positionCoords': [510.6, 335], 'bid': 0.51}, {'imgObject': {}, 'id': 'turkey sandwich', 'src': '/static/foodstim60/turkey sandwich.jpg', 'key': 'i', 'origWidth': 409, 'origHeight': 409, 'width': 409, 'height': 409, 'widthPercent': 0.45, 'rescaleHeight': False, 'trialN': 31, 'loaded': True, 'loadedTime': 2504.600000023842, 'positionName': 'RIGHT', 'positionCoords': [998.4, 335.5], 'bid': 1.18}]",56128.0,1669830945344,hashbrowns,turkey sandwich,0.51,1.18,0.6699999999999999,turkey sandwich,1777.3000000715256,1778,1777.5,True,i,58407.90000009537,2279.9000000953674,1669830947624,2280,HRV,HRV_0154,2022-11-30 18:00:27
32,"[{'imgObject': {}, 'id': 'hotdog w must', 'src': '/static/foodstim60/hotdog w must.jpg', 'key': 'u', 'origWidth': 409, 'origHeight': 409, 'width': 409, 'height': 409, 'widthPercent': 0.45, 'rescaleHeight': False, 'trialN': 32, 'loaded': True, 'loadedTime': 2533.7000000476837, 'positionName': 'LEFT', 'positionCoords': [512.6, 335.5], 'bid': 7}, {'imgObject': {}, 'id': 'strawberries', 'src': '/static/foodstim60/strawberries.jpg', 'key': 'i', 'origWidth': 410, 'origHeight': 410, 'width': 410, 'height': 410, 'widthPercent': 0.45, 'rescaleHeight': False, 'trialN': 32, 'loaded': True, 'loadedTime': 2408.5, 'positionName': 'RIGHT', 'positionCoords': [998.4, 335], 'bid': 7.08}]",58408.10000002384,1669830947625,hotdog w must,strawberries,7.0,7.08,0.08000000000000007,strawberries,1403.1000000238419,1403,1403.3999999761581,True,i,60321.200000047684,1913.1000000238419,1669830949538,1913,HRV,HRV_0154,2022-11-30 18:00:27
33,"[{'imgObject': {}, 'id': 'cantaloupe', 'src': '/static/foodstim60/cantaloupe.jpg', 'key': 'u', 'origWidth': 409, 'origHeight': 409, 'width': 409, 'height': 409, 'widthPercent': 0.45, 'rescaleHeight': False, 'trialN': 33, 'loaded': True, 'loadedTime': 2540.8000000715256, 'positionName': 'LEFT', 'positionCoords': [512.6, 335.5], 'bid': 3.52}, {'imgObject': {}, 'id': 'Tribe humus pita', 'src': '/static/foodstim60/Tribe humus pita.jpg', 'key': 'i', 'origWidth': 411, 'origHeight': 411, 'width': 411, 'height': 411, 'widthPercent': 0.45, 'rescaleHeight': False, 'trialN': 33, 'loaded': True, 'loadedTime': 2546.3000000715256, 'positionName': 'RIGHT', 'positionCoords': [998.4, 334.5], 'bid': 0.09}]",60321.300000071526,1669830949538,cantaloupe,Tribe humus pita,3.52,0.09,-3.43,cantaloupe,1420.6999999284744,1421,1421.0,True,u,62253.0,1931.6999999284744,1669830951469,1931,HRV,HRV_0154,2022-11-30 18:00:27
34,"[{'imgObject': {}, 'id': 'grilled chicken strips', 'src': '/static/foodstim60/grilled chicken strips.jpg', 'key': 'u', 'origWidth': 410, 'origHeight': 411, 'width': 410, 'height': 411, 'widthPercent': 0.45, 'rescaleHeight': False, 'trialN': 34, 'loaded': True, 'loadedTime': 2496.2000000476837, 'positionName': 'LEFT', 'positionCoords': [511.6, 334.5], 'bid': 7.53}, {'imgObject': {}, 'id': 'shreddedwheatwithmilk', 'src': '/static/foodstim60/shreddedwheatwithmilk.jpg', 'key': 'i', 'origWidth': 410, 'origHeight': 410, 'width': 410, 'height': 410, 'widthPercent': 0.45, 'rescaleHeight': False, 'trialN': 34, 'loaded': True, 'loadedTime': 2547.2000000476837, 'positionName': 'RIGHT', 'positionCoords': [998.4, 335], 'bid': 3.1}]",62253.10000002384,1669830951470,grilled chicken strips,shreddedwheatwithmilk,7.53,3.1,-4.43,grilled chicken strips,1031.2000000476837,1031,1031.6000000238419,True,u,63800.300000071526,1547.2000000476837,1669830953017,1547,HRV,HRV_0154,2022-11-30 18:00:27
35,"[{'imgObject': {}, 'id': 'mashed potato', 'src': '/static/foodstim60/mashed potato.jpg', 'key': 'u', 'origWidth': 409, 'origHeight': 409, 'width': 409, 'height': 409, 'widthPercent': 0.45, 'rescaleHeight': False, 'trialN': 35, 'loaded': True, 'loadedTime': 2447.5, 'positionName': 'LEFT', 'positionCoords': [512.6, 335.5], 'bid': 0.28}, {'imgObject': {}, 'id': 'turkeysandwich', 'src': '/static/foodstim60/turkeysandwich.jpg', 'key': 'i', 'origWidth': 409, 'origHeight': 409, 'width': 409, 'height': 409, 'widthPercent': 0.45, 'rescaleHeight': False, 'trialN': 35, 'loaded': True, 'loadedTime': 2512, 'positionName': 'RIGHT', 'positionCoords': [998.4, 335.5], 'bid': 0.29}]",63800.40000009537,1669830953017,mashed potato,turkeysandwich,0.28,0.29,0.009999999999999953,turkeysandwich,1567.6999999284744,1568,1568.0,True,i,65874.20000004768,2073.7999999523163,1669830955091,2074,HRV,HRV_0154,2022-11-30 18:00:27
36,"[{'imgObject': {}, 'id': 'fruitsalad', 'src': '/static/foodstim60/fruitsalad.jpg', 'key': 'u', 'origWidth': 410, 'origHeight': 410, 'width': 410, 'height': 410, 'widthPercent': 0.45, 'rescaleHeight': False, 'trialN': 36, 'loaded': True, 'loadedTime': 2550.600000023842, 'positionName': 'LEFT', 'positionCoords': [511.6, 335], 'bid': 4.32}, {'imgObject': {}, 'id': 'raspberries', 'src': '/static/foodstim60/raspberries.jpg', 'key': 'i', 'origWidth': 411, 'origHeight': 411, 'width': 411, 'height': 411, 'widthPercent': 0.45, 'rescaleHeight': False, 'trialN': 36, 'loaded': True, 'loadedTime': 2518.4000000953674, 'positionName': 'RIGHT', 'positionCoords': [998.4, 334.5], 'bid': 5.9}]",65874.5,1669830955091,fruitsalad,raspberries,4.32,5.9,1.58,raspberries,1472.5,1473,1472.8000000715256,True,i,67870.0,1995.5,1669830957087,1996,HRV,HRV_0154,2022-11-30 18:00:27
37,"[{'imgObject': {}, 'id': 'cheerios', 'src': '/static/foodstim60/cheerios.jpg', 'key': 'u', 'origWidth': 409, 'origHeight': 410, 'width': 409, 'height': 410, 'widthPercent': 0.45, 'rescaleHeight': False, 'trialN': 37, 'loaded': True, 'loadedTime': 2267.9000000953674, 'positionName': 'LEFT', 'positionCoords': [512.6, 335], 'bid': 0.62}, {'imgObject': {}, 'id': 'granola w milk', 'src': '/static/foodstim60/granola w milk.jpg', 'key': 'i', 'origWidth': 410, 'origHeight': 410, 'width': 410, 'height': 410, 'widthPercent': 0.45, 'rescaleHeight': False, 'trialN': 37, 'loaded': True, 'loadedTime': 2473.2000000476837, 'positionName': 'RIGHT', 'positionCoords': [998.4, 335], 'bid': 0.76}]",67870.30000007153,1669830957087,cheerios,granola w milk,0.62,0.76,0.14,cheerios,1679,1679,1679.1999999284744,True,u,70061.10000002384,2190.7999999523163,1669830959278,2191,HRV,HRV_0154,2022-11-30 18:00:27
38,"[{'imgObject': {}, 'id': 'cocktailshrimp', 'src': '/static/foodstim60/cocktailshrimp.jpg', 'key': 'u', 'origWidth': 410, 'origHeight': 410, 'width': 410, 'height': 410, 'widthPercent': 0.45, 'rescaleHeight': False, 'trialN': 38, 'loaded': True, 'loadedTime': 2551.600000023842, 'positionName': 'LEFT', 'positionCoords': [511.6, 335], 'bid': 3.51}, {'imgObject': {}, 'id': 'baked potato', 'src': '/static/foodstim60/baked potato.jpg', 'key': 'i', 'origWidth': 409, 'origHeight': 410, 'width': 409, 'height': 410, 'widthPercent': 0.45, 'rescaleHeight': False, 'trialN': 38, 'loaded': True, 'loadedTime': 2555.3000000715256, 'positionName': 'RIGHT', 'positionCoords': [998.4, 335], 'bid': 1.44}]",70061.20000004768,1669830959278,cocktailshrimp,baked potato,3.51,1.44,-2.07,cocktailshrimp,2307.899999976158,2308,2308.100000023842,True,u,72873.20000004768,2812.0,1669830962090,2812,HRV,HRV_0154,2022-11-30 18:00:27
39,"[{'imgObject': {}, 'id': 'avocado', 'src': '/static/foodstim60/avocado.jpg', 'key': 'u', 'origWidth': 409, 'origHeight': 409, 'width': 409, 'height': 409, 'widthPercent': 0.45, 'rescaleHeight': False, 'trialN': 39, 'loaded': True, 'loadedTime': 2555.600000023842, 'positionName': 'LEFT', 'positionCoords': [512.6, 335.5], 'bid': 2.34}, {'imgObject': {}, 'id': 'bagel plain', 'src': '/static/foodstim60/bagel plain.jpg', 'key': 'i', 'origWidth': 410, 'origHeight': 410, 'width': 410, 'height': 410, 'widthPercent': 0.45, 'rescaleHeight': False, 'trialN': 39, 'loaded': True, 'loadedTime': 2389.7000000476837, 'positionName': 'RIGHT', 'positionCoords': [998.4, 335], 'bid': 2.47}]",72873.20000004768,1669830962090,avocado,bagel plain,2.34,2.47,0.13000000000000034,bagel plain,1289.8999999761581,1290,1290.2000000476837,True,i,74676.80000007153,1803.6000000238419,1669830963893,1803,HRV,HRV_0154,2022-11-30 18:00:27
40,"[{'imgObject': {}, 'id': 'cherries', 'src': '/static/foodstim60/cherries.jpg', 'key': 'u', 'origWidth': 410, 'origHeight': 411, 'width': 410, 'height': 411, 'widthPercent': 0.45, 'rescaleHeight': False, 'trialN': 40, 'loaded': True, 'loadedTime': 2414.600000023842, 'positionName': 'LEFT', 'positionCoords': [511.6, 334.5], 'bid': 9.9}, {'imgObject': {}, 'id': 'banana', 'src': '/static/foodstim60/banana.jpg', 'key': 'i', 'origWidth': 410, 'origHeight': 410, 'width': 410, 'height': 410, 'widthPercent': 0.45, 'rescaleHeight': False, 'trialN': 40, 'loaded': True, 'loadedTime': 2557.5, 'positionName': 'RIGHT', 'positionCoords': [998.4, 335], 'bid': 9.87}]",74677.0,1669830963894,cherries,banana,9.9,9.87,-0.030000000000001137,banana,616.1000000238419,616,616.3000000715256,True,i,75810.80000007153,1133.8000000715256,1669830965027,1133,HRV,HRV_0154,2022-11-30 18:00:27
41,"[{'imgObject': {}, 'id': 'orange slices', 'src': '/static/foodstim60/orange slices.jpg', 'key': 'u', 'origWidth': 409, 'origHeight': 410, 'width': 409, 'height': 410, 'widthPercent': 0.45, 'rescaleHeight': False, 'trialN': 41, 'loaded': True, 'loadedTime': 2425.2000000476837, 'positionName': 'LEFT', 'positionCoords': [512.6, 335], 'bid': 9.9}, {'imgObject': {}, 'id': 'ice cream sundae 002', 'src': '/static/foodstim60/ice cream sundae 002.jpg', 'key': 'i', 'origWidth': 409, 'origHeight': 409, 'width': 409, 'height': 409, 'widthPercent': 0.45, 'rescaleHeight': False, 'trialN': 41, 'loaded': True, 'loadedTime': 2561.2000000476837, 'positionName': 'RIGHT', 'positionCoords': [998.4, 335.5], 'bid': 9.83}]",75811.10000002384,1669830965028,orange slices,ice cream sundae 002,9.9,9.83,-0.07000000000000028,orange slices,729,729,729.1000000238419,True,u,77052.90000009537,1241.8000000715256,1669830966269,1241,HRV,HRV_0154,2022-11-30 18:00:27
42,"[{'imgObject': {}, 'id': 'seaweed', 'src': '/static/foodstim60/seaweed.jpg', 'key': 'u', 'origWidth': 410, 'origHeight': 410, 'width': 410, 'height': 410, 'widthPercent': 0.45, 'rescaleHeight': False, 'trialN': 42, 'loaded': True, 'loadedTime': 2475.8000000715256, 'positionName': 'LEFT', 'positionCoords': [511.6, 335], 'bid': 0.1}, {'imgObject': {}, 'id': 'tacos', 'src': '/static/foodstim60/tacos.jpg', 'key': 'i', 'origWidth': 411, 'origHeight': 411, 'width': 411, 'height': 411, 'widthPercent': 0.45, 'rescaleHeight': False, 'trialN': 42, 'loaded': True, 'loadedTime': 2514.5, 'positionName': 'RIGHT', 'positionCoords': [998.4, 334.5], 'bid': 4.04}]",77053.0,1669830966270,seaweed,tacos,0.1,4.04,3.94,tacos,1957,1957,1957.3000000715256,True,i,79513.20000004768,2460.2000000476837,1669830968730,2460,HRV,HRV_0154,2022-11-30 18:00:27
43,"[{'imgObject': {}, 'id': 'bagel and cc', 'src': '/static/foodstim60/bagel and cc.jpg', 'key': 'u', 'origWidth': 410, 'origHeight': 410, 'width': 410, 'height': 410, 'widthPercent': 0.45, 'rescaleHeight': False, 'trialN': 43, 'loaded': True, 'loadedTime': 2470.5, 'positionName': 'LEFT', 'positionCoords': [511.6, 335], 'bid': 2.54}, {'imgObject': {}, 'id': 'shreddedwheatwithmilk', 'src': '/static/foodstim60/shreddedwheatwithmilk.jpg', 'key': 'i', 'origWidth': 410, 'origHeight': 410, 'width': 410, 'height': 410, 'widthPercent': 0.45, 'rescaleHeight': False, 'trialN': 43, 'loaded': True, 'loadedTime': 2547.5, 'positionName': 'RIGHT', 'positionCoords': [998.4, 335], 'bid': 3.1}]",79513.30000007153,1669830968730,bagel and cc,shreddedwheatwithmilk,2.54,3.1,0.56,bagel and cc,1364.8999999761581,1365,1365.2999999523163,True,u,81394.90000009537,1881.6000000238419,1669830970611,1881,HRV,HRV_0154,2022-11-30 18:00:27
44,"[{'imgObject': {}, 'id': 'bagel plain', 'src': '/static/foodstim60/bagel plain.jpg', 'key': 'u', 'origWidth': 410, 'origHeight': 410, 'width': 410, 'height': 410, 'widthPercent': 0.45, 'rescaleHeight': False, 'trialN': 44, 'loaded': True, 'loadedTime': 2383.600000023842, 'positionName': 'LEFT', 'positionCoords': [511.6, 335], 'bid': 2.47}, {'imgObject': {}, 'id': 'shreddedwheatwithmilk', 'src': '/static/foodstim60/shreddedwheatwithmilk.jpg', 'key': 'i', 'origWidth': 410, 'origHeight': 410, 'width': 410, 'height': 410, 'widthPercent': 0.45, 'rescaleHeight': False, 'trialN': 44, 'loaded': True, 'loadedTime': 2547.3000000715256, 'positionName': 'RIGHT', 'positionCoords': [998.4, 335], 'bid': 3.1}]",81395.10000002384,1669830970612,bagel plain,shreddedwheatwithmilk,2.47,3.1,0.6299999999999999,bagel plain,587,587,587.2000000476837,True,u,82497.80000007153,1102.7000000476837,1669830971714,1102,HRV,HRV_0154,2022-11-30 18:00:27
45,"[{'imgObject': {}, 'id': 'eggs', 'src': '/static/foodstim60/eggs.jpg', 'key': 'u', 'origWidth': 409, 'origHeight': 409, 'width': 409, 'height': 409, 'widthPercent': 0.45, 'rescaleHeight': False, 'trialN': 45, 'loaded': True, 'loadedTime': 2375, 'positionName': 'LEFT', 'positionCoords': [512.6, 335.5], 'bid': 5.8500000000000005}, {'imgObject': {}, 'id': 'orange slices', 'src': '/static/foodstim60/orange slices.jpg', 'key': 'i', 'origWidth': 409, 'origHeight': 410, 'width': 409, 'height': 410, 'widthPercent': 0.45, 'rescaleHeight': False, 'trialN': 45, 'loaded': True, 'loadedTime': 2424.600000023842, 'positionName': 'RIGHT', 'positionCoords': [998.4, 335], 'bid': 9.9}]",82498.0,1669830971715,eggs,orange slices,5.8500000000000005,9.9,4.05,orange slices,854,854,854.3000000715256,True,i,83867.60000002384,1369.6000000238419,1669830973084,1369,HRV,HRV_0154,2022-11-30 18:00:27
46,"[{'imgObject': {}, 'id': 'burger', 'src': '/static/foodstim60/burger.jpg', 'key': 'u', 'origWidth': 409, 'origHeight': 409, 'width': 409, 'height': 409, 'widthPercent': 0.45, 'rescaleHeight': False, 'trialN': 46, 'loaded': True, 'loadedTime': 2562, 'positionName': 'LEFT', 'positionCoords': [512.6, 335.5], 'bid': 4.93}, {'imgObject': {}, 'id': 'fruitsalad', 'src': '/static/foodstim60/fruitsalad.jpg', 'key': 'i', 'origWidth': 410, 'origHeight': 410, 'width': 410, 'height': 410, 'widthPercent': 0.45, 'rescaleHeight': False, 'trialN': 46, 'loaded': True, 'loadedTime': 2548.2000000476837, 'positionName': 'RIGHT', 'positionCoords': [998.4, 335], 'bid': 4.32}]",83867.70000004768,1669830973084,burger,fruitsalad,4.93,4.32,-0.6099999999999994,fruitsalad,1322.5,1323,1322.7000000476837,True,i,85708.30000007153,1840.6000000238419,1669830974925,1841,HRV,HRV_0154,2022-11-30 18:00:27
47,"[{'imgObject': {}, 'id': 'Tribe humus pita', 'src': '/static/foodstim60/Tribe humus pita.jpg', 'key': 'u', 'origWidth': 411, 'origHeight': 411, 'width': 411, 'height': 411, 'widthPercent': 0.45, 'rescaleHeight': False, 'trialN': 47, 'loaded': True, 'loadedTime': 2543.8000000715256, 'positionName': 'LEFT', 'positionCoords': [510.6, 334.5], 'bid': 0.09}, {'imgObject': {}, 'id': 'sweetpotato', 'src': '/static/foodstim60/sweetpotato.jpg', 'key': 'i', 'origWidth': 410, 'origHeight': 410, 'width': 410, 'height': 410, 'widthPercent': 0.45, 'rescaleHeight': False, 'trialN': 47, 'loaded': True, 'loadedTime': 2565.8000000715256, 'positionName': 'RIGHT', 'positionCoords': [998.4, 335], 'bid': 0.38}]",85708.40000009537,1669830974925,Tribe humus pita,sweetpotato,0.09,0.38,0.29000000000000004,Tribe humus pita,1462.6999999284744,1463,1462.8999999761581,True,u,87688.10000002384,1979.6999999284744,1669830976905,1980,HRV,HRV_0154,2022-11-30 18:00:27
48,"[{'imgObject': {}, 'id': 'olives', 'src': '/static/foodstim60/olives.jpg', 'key': 'u', 'origWidth': 410, 'origHeight': 410, 'width': 410, 'height': 410, 'widthPercent': 0.45, 'rescaleHeight': False, 'trialN': 48, 'loaded': True, 'loadedTime': 2479.8000000715256, 'positionName': 'LEFT', 'positionCoords': [511.6, 335], 'bid': 0.13}, {'imgObject': {}, 'id': 'rigatoni', 'src': '/static/foodstim60/rigatoni.jpg', 'key': 'i', 'origWidth': 411, 'origHeight': 411, 'width': 411, 'height': 411, 'widthPercent': 0.45, 'rescaleHeight': False, 'trialN': 48, 'loaded': True, 'loadedTime': 2565.9000000953674, 'positionName': 'RIGHT', 'positionCoords': [998.4, 334.5], 'bid': 0.8200000000000001}]",87688.20000004768,1669830976905,olives,rigatoni,0.13,0.8200000000000001,0.6900000000000001,olives,1176.7999999523163,1177,1177.2000000476837,True,u,89375.70000004768,1687.5,1669830978592,1687,HRV,HRV_0154,2022-11-30 18:00:27
49,"[{'imgObject': {}, 'id': 'omelette', 'src': '/static/foodstim60/omelette.jpg', 'key': 'u', 'origWidth': 410, 'origHeight': 409, 'width': 410, 'height': 409, 'widthPercent': 0.45, 'rescaleHeight': False, 'trialN': 49, 'loaded': True, 'loadedTime': 2363.3000000715256, 'positionName': 'LEFT', 'positionCoords': [511.6, 335.5], 'bid': 0.09}, {'imgObject': {}, 'id': 'eggsalad', 'src': '/static/foodstim60/eggsalad.jpg', 'key': 'i', 'origWidth': 410, 'origHeight': 409, 'width': 410, 'height': 409, 'widthPercent': 0.45, 'rescaleHeight': False, 'trialN': 49, 'loaded': True, 'loadedTime': 2463.600000023842, 'positionName': 'RIGHT', 'positionCoords': [998.4, 335.5], 'bid': 0.08}]",89375.80000007153,1669830978592,omelette,eggsalad,0.09,0.08,-0.009999999999999995,omelette,1029.2999999523163,1030,1029.5,True,u,90921.0,1545.1999999284744,1669830980138,1546,HRV,HRV_0154,2022-11-30 18:00:27
50,"[{'imgObject': {}, 'id': 'luckycharms', 'src': '/static/foodstim60/luckycharms.jpg', 'key': 'u', 'origWidth': 410, 'origHeight': 409, 'width': 410, 'height': 409, 'widthPercent': 0.45, 'rescaleHeight': False, 'trialN': 50, 'loaded': True, 'loadedTime': 2570.100000023842, 'positionName': 'LEFT', 'positionCoords': [511.6, 335.5], 'bid': 1.02}, {'imgObject': {}, 'id': 'raisin bran w milk', 'src': '/static/foodstim60/raisin bran w milk.jpg', 'key': 'i', 'origWidth': 411, 'origHeight': 411, 'width': 411, 'height': 411, 'widthPercent': 0.45, 'rescaleHeight': False, 'trialN': 50, 'loaded': True, 'loadedTime': 2453.8000000715256, 'positionName': 'RIGHT', 'positionCoords': [998.4, 334.5], 'bid': 0.41}]",90921.20000004768,1669830980138,luckycharms,raisin bran w milk,1.02,0.41,-0.6100000000000001,raisin bran w milk,1128.1000000238419,1128,1128.3999999761581,True,i,92553.60000002384,1632.3999999761581,1669830981770,1632,HRV,HRV_0154,2022-11-30 18:00:27
51,"[{'imgObject': {}, 'id': 'orange slices', 'src': '/static/foodstim60/orange slices.jpg', 'key': 'u', 'origWidth': 409, 'origHeight': 410, 'width': 409, 'height': 410, 'widthPercent': 0.45, 'rescaleHeight': False, 'trialN': 51, 'loaded': True, 'loadedTime': 2425.100000023842, 'positionName': 'LEFT', 'positionCoords': [512.6, 335], 'bid': 9.9}, {'imgObject': {}, 'id': 'steak', 'src': '/static/foodstim60/steak.jpg', 'key': 'i', 'origWidth': 410, 'origHeight': 410, 'width': 410, 'height': 410, 'widthPercent': 0.45, 'rescaleHeight': False, 'trialN': 51, 'loaded': True, 'loadedTime': 2485.600000023842, 'positionName': 'RIGHT', 'positionCoords': [998.4, 335], 'bid': 9.92}]",92553.70000004768,1669830981770,orange slices,steak,9.9,9.92,0.019999999999999574,orange slices,699.2999999523163,700,699.6000000238419,True,u,93764.60000002384,1210.8999999761581,1669830982981,1211,HRV,HRV_0154,2022-11-30 18:00:27
52,"[{'imgObject': {}, 'id': 'veggieswithdip', 'src': '/static/foodstim60/veggieswithdip.jpg', 'key': 'u', 'origWidth': 409, 'origHeight': 409, 'width': 409, 'height': 409, 'widthPercent': 0.45, 'rescaleHeight': False, 'trialN': 52, 'loaded': True, 'loadedTime': 2534.7000000476837, 'positionName': 'LEFT', 'positionCoords': [512.6, 335.5], 'bid': 5.0200000000000005}, {'imgObject': {}, 'id': 'corn cob', 'src': '/static/foodstim60/corn cob.jpg', 'key': 'i', 'origWidth': 411, 'origHeight': 411, 'width': 411, 'height': 411, 'widthPercent': 0.45, 'rescaleHeight': False, 'trialN': 52, 'loaded': True, 'loadedTime': 2570.2000000476837, 'positionName': 'RIGHT', 'positionCoords': [998.4, 334.5], 'bid': 5.03}]",93764.80000007153,1669830982981,veggieswithdip,corn cob,5.0200000000000005,5.03,0.009999999999999787,corn cob,1611.2999999523163,1612,1611.5,True,i,95889.70000004768,2124.899999976158,1669830985106,2125,HRV,HRV_0154,2022-11-30 18:00:27
53,"[{'imgObject': {}, 'id': 'salmon', 'src': '/static/foodstim60/salmon.jpg', 'key': 'u', 'origWidth': 410, 'origHeight': 409, 'width': 410, 'height': 409, 'widthPercent': 0.45, 'rescaleHeight': False, 'trialN': 53, 'loaded': True, 'loadedTime': 2400.5, 'positionName': 'LEFT', 'positionCoords': [511.6, 335.5], 'bid': 7.82}, {'imgObject': {}, 'id': 'eggs', 'src': '/static/foodstim60/eggs.jpg', 'key': 'i', 'origWidth': 409, 'origHeight': 409, 'width': 409, 'height': 409, 'widthPercent': 0.45, 'rescaleHeight': False, 'trialN': 53, 'loaded': True, 'loadedTime': 2374.9000000953674, 'positionName': 'RIGHT', 'positionCoords': [998.4, 335.5], 'bid': 5.8500000000000005}]",95890.0,1669830985106,salmon,eggs,7.82,5.8500000000000005,-1.9699999999999998,salmon,1006.3000000715256,1007,1006.6000000238419,True,u,97402.40000009537,1512.4000000953674,1669830986619,1513,HRV,HRV_0154,2022-11-30 18:00:27
54,"[{'imgObject': {}, 'id': 'fried eggs', 'src': '/static/foodstim60/fried eggs.jpg', 'key': 'u', 'origWidth': 410, 'origHeight': 410, 'width': 410, 'height': 410, 'widthPercent': 0.45, 'rescaleHeight': False, 'trialN': 54, 'loaded': True, 'loadedTime': 2460.100000023842, 'positionName': 'LEFT', 'positionCoords': [511.6, 335], 'bid': 0.32}, {'imgObject': {}, 'id': 'seaweed', 'src': '/static/foodstim60/seaweed.jpg', 'key': 'i', 'origWidth': 410, 'origHeight': 410, 'width': 410, 'height': 410, 'widthPercent': 0.45, 'rescaleHeight': False, 'trialN': 54, 'loaded': True, 'loadedTime': 2476.9000000953674, 'positionName': 'RIGHT', 'positionCoords': [998.4, 335], 'bid': 0.1}]",97402.60000002384,1669830986619,fried eggs,seaweed,0.32,0.1,-0.22,fried eggs,1016.5,1017,1016.7000000476837,True,u,98931.90000009537,1529.3000000715256,1669830988148,1529,HRV,HRV_0154,2022-11-30 18:00:27
55,"[{'imgObject': {}, 'id': 'cheerios', 'src': '/static/foodstim60/cheerios.jpg', 'key': 'u', 'origWidth': 409, 'origHeight': 410, 'width': 409, 'height': 410, 'widthPercent': 0.45, 'rescaleHeight': False, 'trialN': 55, 'loaded': True, 'loadedTime': 2348.2000000476837, 'positionName': 'LEFT', 'positionCoords': [512.6, 335], 'bid': 0.62}, {'imgObject': {}, 'id': 'hashbrowns', 'src': '/static/foodstim60/hashbrowns.jpg', 'key': 'i', 'origWidth': 411, 'origHeight': 410, 'width': 411, 'height': 410, 'widthPercent': 0.45, 'rescaleHeight': False, 'trialN': 55, 'loaded': True, 'loadedTime': 2436.8000000715256, 'positionName': 'RIGHT', 'positionCoords': [998.4, 335], 'bid': 0.51}]",98932.0,1669830988148,cheerios,hashbrowns,0.62,0.51,-0.10999999999999999,cheerios,1721.1000000238419,1722,1721.3000000715256,True,u,101167.90000009537,2235.9000000953674,1669830990384,2236,HRV,HRV_0154,2022-11-30 18:00:27
56,"[{'imgObject': {}, 'id': 'avocado', 'src': '/static/foodstim60/avocado.jpg', 'key': 'u', 'origWidth': 409, 'origHeight': 409, 'width': 409, 'height': 409, 'widthPercent': 0.45, 'rescaleHeight': False, 'trialN': 56, 'loaded': True, 'loadedTime': 2556.3000000715256, 'positionName': 'LEFT', 'positionCoords': [512.6, 335.5], 'bid': 2.34}, {'imgObject': {}, 'id': 'bagel and cc', 'src': '/static/foodstim60/bagel and cc.jpg', 'key': 'i', 'origWidth': 410, 'origHeight': 410, 'width': 410, 'height': 410, 'widthPercent': 0.45, 'rescaleHeight': False, 'trialN': 56, 'loaded': True, 'loadedTime': 2467.5, 'positionName': 'RIGHT', 'positionCoords': [998.4, 335], 'bid': 2.54}]",101168.0,1669830990384,avocado,bagel and cc,2.34,2.54,0.20000000000000018,bagel and cc,982.3000000715256,983,982.5,True,i,102666.30000007153,1498.3000000715256,1669830991883,1499,HRV,HRV_0154,2022-11-30 18:00:27
57,"[{'imgObject': {}, 'id': 'cherry tomato', 'src': '/static/foodstim60/cherry tomato.jpg', 'key': 'u', 'origWidth': 410, 'origHeight': 410, 'width': 410, 'height': 410, 'widthPercent': 0.45, 'rescaleHeight': False, 'trialN': 57, 'loaded': True, 'loadedTime': 2428.7000000476837, 'positionName': 'LEFT', 'positionCoords': [511.6, 335], 'bid': 0.64}, {'imgObject': {}, 'id': 'mashed potato', 'src': '/static/foodstim60/mashed potato.jpg', 'key': 'i', 'origWidth': 409, 'origHeight': 409, 'width': 409, 'height': 409, 'widthPercent': 0.45, 'rescaleHeight': False, 'trialN': 57, 'loaded': True, 'loadedTime': 2447.5, 'positionName': 'RIGHT', 'positionCoords': [998.4, 335.5], 'bid': 0.28}]",102666.30000007153,1669830991883,cherry tomato,mashed potato,0.64,0.28,-0.36,cherry tomato,1459,1459,1459.1000000238419,True,u,104633.0,1966.6999999284744,1669830993849,1966,HRV,HRV_0154,2022-11-30 18:00:27
58,"[{'imgObject': {}, 'id': 'baked potato', 'src': '/static/foodstim60/baked potato.jpg', 'key': 'u', 'origWidth': 409, 'origHeight': 410, 'width': 409, 'height': 410, 'widthPercent': 0.45, 'rescaleHeight': False, 'trialN': 58, 'loaded': True, 'loadedTime': 2555.5, 'positionName': 'LEFT', 'positionCoords': [512.6, 335], 'bid': 1.44}, {'imgObject': {}, 'id': 'roastedpotatoes', 'src': '/static/foodstim60/roastedpotatoes.jpg', 'key': 'i', 'origWidth': 409, 'origHeight': 410, 'width': 409, 'height': 410, 'widthPercent': 0.45, 'rescaleHeight': False, 'trialN': 58, 'loaded': True, 'loadedTime': 2509.100000023842, 'positionName': 'RIGHT', 'positionCoords': [998.4, 335], 'bid': 0.32}]",104633.10000002384,1669830993849,baked potato,roastedpotatoes,1.44,0.32,-1.1199999999999999,roastedpotatoes,2222,2223,2222.2000000476837,True,i,107364.5,2731.399999976158,1669830996581,2732,HRV,HRV_0154,2022-11-30 18:00:27
59,"[{'imgObject': {}, 'id': 'salad w chicken', 'src': '/static/foodstim60/salad w chicken.jpg', 'key': 'u', 'origWidth': 411, 'origHeight': 411, 'width': 411, 'height': 411, 'widthPercent': 0.45, 'rescaleHeight': False, 'trialN': 59, 'loaded': True, 'loadedTime': 2572.100000023842, 'positionName': 'LEFT', 'positionCoords': [510.6, 334.5], 'bid': 4.1}, {'imgObject': {}, 'id': 'blackbeanswithrice', 'src': '/static/foodstim60/blackbeanswithrice.jpg', 'key': 'i', 'origWidth': 410, 'origHeight': 410, 'width': 410, 'height': 410, 'widthPercent': 0.45, 'rescaleHeight': False, 'trialN': 59, 'loaded': True, 'loadedTime': 2490.8000000715256, 'positionName': 'RIGHT', 'positionCoords': [998.4, 335], 'bid': 1.41}]",107364.60000002384,1669830996581,salad w chicken,blackbeanswithrice,4.1,1.41,-2.6899999999999995,salad w chicken,1509.5,1510,1509.7000000476837,True,u,109396.90000009537,2032.3000000715256,1669830998613,2032,HRV,HRV_0154,2022-11-30 18:00:27
60,"[{'imgObject': {}, 'id': 'mango', 'src': '/static/foodstim60/mango.jpg', 'key': 'u', 'origWidth': 411, 'origHeight': 411, 'width': 411, 'height': 411, 'widthPercent': 0.45, 'rescaleHeight': False, 'trialN': 60, 'loaded': True, 'loadedTime': 2530.100000023842, 'positionName': 'LEFT', 'positionCoords': [510.6, 334.5], 'bid': 1.4}, {'imgObject': {}, 'id': 'tacos', 'src': '/static/foodstim60/tacos.jpg', 'key': 'i', 'origWidth': 411, 'origHeight': 411, 'width': 411, 'height': 411, 'widthPercent': 0.45, 'rescaleHeight': False, 'trialN': 60, 'loaded': True, 'loadedTime': 2515.4000000953674, 'positionName': 'RIGHT', 'positionCoords': [998.4, 334.5], 'bid': 4.04}]",109396.90000009537,1669830998613,mango,tacos,1.4,4.04,2.64,mango,985.1999999284744,986,985.5,True,u,110902.20000004768,1505.2999999523163,1669831000119,1506,HRV,HRV_0154,2022-11-30 18:00:27
61,"[{'imgObject': {}, 'id': 'cocktailshrimp', 'src': '/static/foodstim60/cocktailshrimp.jpg', 'key': 'u', 'origWidth': 410, 'origHeight': 410, 'width': 410, 'height': 410, 'widthPercent': 0.45, 'rescaleHeight': False, 'trialN': 61, 'loaded': True, 'loadedTime': 2551.600000023842, 'positionName': 'LEFT', 'positionCoords': [511.6, 335], 'bid': 3.51}, {'imgObject': {}, 'id': 'cantaloupe', 'src': '/static/foodstim60/cantaloupe.jpg', 'key': 'i', 'origWidth': 409, 'origHeight': 409, 'width': 409, 'height': 409, 'widthPercent': 0.45, 'rescaleHeight': False, 'trialN': 61, 'loaded': True, 'loadedTime': 2540.4000000953674, 'positionName': 'RIGHT', 'positionCoords': [998.4, 335.5], 'bid': 3.52}]",110902.30000007153,1669831000119,cocktailshrimp,cantaloupe,3.51,3.52,0.010000000000000231,cocktailshrimp,1215.7999999523163,1216,1216.1999999284744,True,u,112623.90000009537,1721.6000000238419,1669831001840,1721,HRV,HRV_0154,2022-11-30 18:00:27
62,"[{'imgObject': {}, 'id': 'chicken nuggets2', 'src': '/static/foodstim60/chicken nuggets2.jpg', 'key': 'u', 'origWidth': 410, 'origHeight': 409, 'width': 410, 'height': 409, 'widthPercent': 0.45, 'rescaleHeight': False, 'trialN': 62, 'loaded': True, 'loadedTime': 2528.9000000953674, 'positionName': 'LEFT', 'positionCoords': [511.6, 335.5], 'bid': 9.87}, {'imgObject': {}, 'id': 'raspberries', 'src': '/static/foodstim60/raspberries.jpg', 'key': 'i', 'origWidth': 411, 'origHeight': 411, 'width': 411, 'height': 411, 'widthPercent': 0.45, 'rescaleHeight': False, 'trialN': 62, 'loaded': True, 'loadedTime': 2520.600000023842, 'positionName': 'RIGHT', 'positionCoords': [998.4, 334.5], 'bid': 5.9}]",112623.90000009537,1669831001840,chicken nuggets2,raspberries,9.87,5.9,-3.969999999999999,chicken nuggets2,1366.3999999761581,1367,1366.5999999046326,True,u,114505.5,1881.5999999046326,1669831003722,1882,HRV,HRV_0154,2022-11-30 18:00:27
63,"[{'imgObject': {}, 'id': 'yogurt no spoon', 'src': '/static/foodstim60/yogurt no spoon.jpg', 'key': 'u', 'origWidth': 411, 'origHeight': 410, 'width': 411, 'height': 410, 'widthPercent': 0.45, 'rescaleHeight': False, 'trialN': 63, 'loaded': True, 'loadedTime': 2573.100000023842, 'positionName': 'LEFT', 'positionCoords': [510.6, 335], 'bid': 1.97}, {'imgObject': {}, 'id': 'cantaloupe', 'src': '/static/foodstim60/cantaloupe.jpg', 'key': 'i', 'origWidth': 409, 'origHeight': 409, 'width': 409, 'height': 409, 'widthPercent': 0.45, 'rescaleHeight': False, 'trialN': 63, 'loaded': True, 'loadedTime': 2540.7000000476837, 'positionName': 'RIGHT', 'positionCoords': [998.4, 335.5], 'bid': 3.52}]",114505.60000002384,1669831003722,yogurt no spoon,cantaloupe,1.97,3.52,1.55,cantaloupe,1218.5,1219,1218.8000000715256,True,i,116233.10000002384,1727.5,1669831005449,1727,HRV,HRV_0154,2022-11-30 18:00:27
64,"[{'imgObject': {}, 'id': 'Grapes', 'src': '/static/foodstim60/Grapes.jpg', 'key': 'u', 'origWidth': 411, 'origHeight': 411, 'width': 411, 'height': 411, 'widthPercent': 0.45, 'rescaleHeight': False, 'trialN': 64, 'loaded': True, 'loadedTime': 2574, 'positionName': 'LEFT', 'positionCoords': [510.6, 334.5], 'bid': 9.88}, {'imgObject': {}, 'id': 'chicken nuggets2', 'src': '/static/foodstim60/chicken nuggets2.jpg', 'key': 'i', 'origWidth': 410, 'origHeight': 409, 'width': 410, 'height': 409, 'widthPercent': 0.45, 'rescaleHeight': False, 'trialN': 64, 'loaded': True, 'loadedTime': 2526, 'positionName': 'RIGHT', 'positionCoords': [998.4, 335.5], 'bid': 9.87}]",116233.20000004768,1669831005450,Grapes,chicken nuggets2,9.88,9.87,-0.010000000000001563,Grapes,823,823,823.2999999523163,True,u,117570.30000007153,1337.1000000238419,1669831006787,1337,HRV,HRV_0154,2022-11-30 18:00:27
65,"[{'imgObject': {}, 'id': 'raisin bran w milk', 'src': '/static/foodstim60/raisin bran w milk.jpg', 'key': 'u', 'origWidth': 411, 'origHeight': 411, 'width': 411, 'height': 411, 'widthPercent': 0.45, 'rescaleHeight': False, 'trialN': 65, 'loaded': True, 'loadedTime': 2456.9000000953674, 'positionName': 'LEFT', 'positionCoords': [510.6, 334.5], 'bid': 0.41}, {'imgObject': {}, 'id': 'strawberries', 'src': '/static/foodstim60/strawberries.jpg', 'key': 'i', 'origWidth': 410, 'origHeight': 410, 'width': 410, 'height': 410, 'widthPercent': 0.45, 'rescaleHeight': False, 'trialN': 65, 'loaded': True, 'loadedTime': 2405.2000000476837, 'positionName': 'RIGHT', 'positionCoords': [998.4, 335], 'bid': 7.08}]",117570.40000009537,1669831006787,raisin bran w milk,strawberries,0.41,7.08,6.67,strawberries,883.6999999284744,884,883.8999999761581,True,i,118962.5,1392.0999999046326,1669831008179,1392,HRV,HRV_0154,2022-11-30 18:00:27
66,"[{'imgObject': {}, 'id': 'corn cob', 'src': '/static/foodstim60/corn cob.jpg', 'key': 'u', 'origWidth': 411, 'origHeight': 411, 'width': 411, 'height': 411, 'widthPercent': 0.45, 'rescaleHeight': False, 'trialN': 66, 'loaded': True, 'loadedTime': 2571.100000023842, 'positionName': 'LEFT', 'positionCoords': [510.6, 334.5], 'bid': 5.03}, {'imgObject': {}, 'id': 'strawberries', 'src': '/static/foodstim60/strawberries.jpg', 'key': 'i', 'origWidth': 410, 'origHeight': 410, 'width': 410, 'height': 410, 'widthPercent': 0.45, 'rescaleHeight': False, 'trialN': 66, 'loaded': True, 'loadedTime': 2408, 'positionName': 'RIGHT', 'positionCoords': [998.4, 335], 'bid': 7.08}]",118962.70000004768,1669831008179,corn cob,strawberries,5.03,7.08,2.05,corn cob,3485.399999976158,3486,3485.7000000476837,True,u,122952.60000002384,3989.899999976158,1669831012169,3990,HRV,HRV_0154,2022-11-30 18:00:27
67,"[{'imgObject': {}, 'id': 'salad w chicken', 'src': '/static/foodstim60/salad w chicken.jpg', 'key': 'u', 'origWidth': 411, 'origHeight': 411, 'width': 411, 'height': 411, 'widthPercent': 0.45, 'rescaleHeight': False, 'trialN': 67, 'loaded': True, 'loadedTime': 2572.3000000715256, 'positionName': 'LEFT', 'positionCoords': [510.6, 334.5], 'bid': 4.1}, {'imgObject': {}, 'id': 'bagel plain', 'src': '/static/foodstim60/bagel plain.jpg', 'key': 'i', 'origWidth': 410, 'origHeight': 410, 'width': 410, 'height': 410, 'widthPercent': 0.45, 'rescaleHeight': False, 'trialN': 67, 'loaded': True, 'loadedTime': 2386.7000000476837, 'positionName': 'RIGHT', 'positionCoords': [998.4, 335], 'bid': 2.47}]",122952.80000007153,1669831012169,salad w chicken,bagel plain,4.1,2.47,-1.6299999999999994,bagel plain,2765.5,2766,2765.6999999284744,True,i,126234.70000004768,3281.899999976158,1669831015451,3282,HRV,HRV_0154,2022-11-30 18:00:27
68,"[{'imgObject': {}, 'id': 'omelette', 'src': '/static/foodstim60/omelette.jpg', 'key': 'u', 'origWidth': 410, 'origHeight': 409, 'width': 410, 'height': 409, 'widthPercent': 0.45, 'rescaleHeight': False, 'trialN': 68, 'loaded': True, 'loadedTime': 2371.3000000715256, 'positionName': 'LEFT', 'positionCoords': [511.6, 335.5], 'bid': 0.09}, {'imgObject': {}, 'id': 'Tribe humus pita', 'src': '/static/foodstim60/Tribe humus pita.jpg', 'key': 'i', 'origWidth': 411, 'origHeight': 411, 'width': 411, 'height': 411, 'widthPercent': 0.45, 'rescaleHeight': False, 'trialN': 68, 'loaded': True, 'loadedTime': 2546.100000023842, 'positionName': 'RIGHT', 'positionCoords': [998.4, 334.5], 'bid': 0.09}]",126234.80000007153,1669831015451,omelette,Tribe humus pita,0.09,0.09,0.0,Tribe humus pita,1227.6000000238419,1228,1227.8999999761581,True,i,127973.20000004768,1738.3999999761581,1669831017190,1739,HRV,HRV_0154,2022-11-30 18:00:27
69,"[{'imgObject': {}, 'id': 'apple slices', 'src': '/static/foodstim60/apple slices.jpg', 'key': 'u', 'origWidth': 409, 'origHeight': 410, 'width': 409, 'height': 410, 'widthPercent': 0.45, 'rescaleHeight': False, 'trialN': 69, 'loaded': True, 'loadedTime': 2417.5, 'positionName': 'LEFT', 'positionCoords': [512.6, 335], 'bid': 9.93}, {'imgObject': {}, 'id': 'avocado', 'src': '/static/foodstim60/avocado.jpg', 'key': 'i', 'origWidth': 409, 'origHeight': 409, 'width': 409, 'height': 409, 'widthPercent': 0.45, 'rescaleHeight': False, 'trialN': 69, 'loaded': True, 'loadedTime': 2556.8000000715256, 'positionName': 'RIGHT', 'positionCoords': [998.4, 335.5], 'bid': 2.34}]",127973.40000009537,1669831017190,apple slices,avocado,9.93,2.34,-7.59,apple slices,819.7999999523163,820,820.0999999046326,True,u,129308.5,1335.0999999046326,1669831018525,1335,HRV,HRV_0154,2022-11-30 18:00:27
70,"[{'imgObject': {}, 'id': 'luckycharms', 'src': '/static/foodstim60/luckycharms.jpg', 'key': 'u', 'origWidth': 410, 'origHeight': 409, 'width': 410, 'height': 409, 'widthPercent': 0.45, 'rescaleHeight': False, 'trialN': 70, 'loaded': True, 'loadedTime': 2570.100000023842, 'positionName': 'LEFT', 'positionCoords': [511.6, 335.5], 'bid': 1.02}, {'imgObject': {}, 'id': 'rigatoni', 'src': '/static/foodstim60/rigatoni.jpg', 'key': 'i', 'origWidth': 411, 'origHeight': 411, 'width': 411, 'height': 411, 'widthPercent': 0.45, 'rescaleHeight': False, 'trialN': 70, 'loaded': True, 'loadedTime': 2566.7000000476837, 'positionName': 'RIGHT', 'positionCoords': [998.4, 334.5], 'bid': 0.8200000000000001}]",129308.60000002384,1669831018525,luckycharms,rigatoni,1.02,0.8200000000000001,-0.19999999999999996,luckycharms,1521.6000000238419,1522,1521.8000000715256,True,u,131339.30000007153,2030.7000000476837,1669831020556,2031,HRV,HRV_0154,2022-11-30 18:00:27
71,"[{'imgObject': {}, 'id': 'roastedpotatoes', 'src': '/static/foodstim60/roastedpotatoes.jpg', 'key': 'u', 'origWidth': 409, 'origHeight': 410, 'width': 409, 'height': 410, 'widthPercent': 0.45, 'rescaleHeight': False, 'trialN': 71, 'loaded': True, 'loadedTime': 2509.100000023842, 'positionName': 'LEFT', 'positionCoords': [512.6, 335], 'bid': 0.32}, {'imgObject': {}, 'id': 'sushi w_condiments', 'src': '/static/foodstim60/sushi w_condiments.jpg', 'key': 'i', 'origWidth': 410, 'origHeight': 410, 'width': 410, 'height': 410, 'widthPercent': 0.45, 'rescaleHeight': False, 'trialN': 71, 'loaded': True, 'loadedTime': 2575.100000023842, 'positionName': 'RIGHT', 'positionCoords': [998.4, 335], 'bid': 0.08}]",131339.5,1669831020556,roastedpotatoes,sushi w_condiments,0.32,0.08,-0.24,roastedpotatoes,1214.7000000476837,1215,1214.9000000953674,True,u,133074.5,1735.0,1669831022291,1735,HRV,HRV_0154,2022-11-30 18:00:27
72,"[{'imgObject': {}, 'id': 'cheerios', 'src': '/static/foodstim60/cheerios.jpg', 'key': 'u', 'origWidth': 409, 'origHeight': 410, 'width': 409, 'height': 410, 'widthPercent': 0.45, 'rescaleHeight': False, 'trialN': 72, 'loaded': True, 'loadedTime': 2347.600000023842, 'positionName': 'LEFT', 'positionCoords': [512.6, 335], 'bid': 0.62}, {'imgObject': {}, 'id': 'mac & cheese', 'src': '/static/foodstim60/mac & cheese.jpg', 'key': 'i', 'origWidth': 410, 'origHeight': 410, 'width': 410, 'height': 410, 'widthPercent': 0.45, 'rescaleHeight': False, 'trialN': 72, 'loaded': True, 'loadedTime': 2499.7000000476837, 'positionName': 'RIGHT', 'positionCoords': [998.4, 335], 'bid': 0.25}]",133074.60000002384,1669831022291,cheerios,mac & cheese,0.62,0.25,-0.37,cheerios,1382.5,1383,1382.6000000238419,True,u,134972.20000004768,1897.6000000238419,1669831024188,1897,HRV,HRV_0154,2022-11-30 18:00:27
73,"[{'imgObject': {}, 'id': 'raspberries', 'src': '/static/foodstim60/raspberries.jpg', 'key': 'u', 'origWidth': 411, 'origHeight': 411, 'width': 411, 'height': 411, 'widthPercent': 0.45, 'rescaleHeight': False, 'trialN': 73, 'loaded': True, 'loadedTime': 2520.4000000953674, 'positionName': 'LEFT', 'positionCoords': [510.6, 334.5], 'bid': 5.9}, {'imgObject': {}, 'id': 'burrito', 'src': '/static/foodstim60/burrito.jpg', 'key': 'i', 'origWidth': 410, 'origHeight': 410, 'width': 410, 'height': 410, 'widthPercent': 0.45, 'rescaleHeight': False, 'trialN': 73, 'loaded': True, 'loadedTime': 2396.8000000715256, 'positionName': 'RIGHT', 'positionCoords': [998.4, 335], 'bid': 0.34}]",134972.30000007153,1669831024189,raspberries,burrito,5.9,0.34,-5.5600000000000005,raspberries,1299.1000000238419,1299,1299.2999999523163,True,u,136777.80000007153,1805.5,1669831025994,1805,HRV,HRV_0154,2022-11-30 18:00:27
74,"[{'imgObject': {}, 'id': 'bagel and cc', 'src': '/static/foodstim60/bagel and cc.jpg', 'key': 'u', 'origWidth': 410, 'origHeight': 410, 'width': 410, 'height': 410, 'widthPercent': 0.45, 'rescaleHeight': False, 'trialN': 74, 'loaded': True, 'loadedTime': 2467.3000000715256, 'positionName': 'LEFT', 'positionCoords': [511.6, 335], 'bid': 2.54}, {'imgObject': {}, 'id': 'eggsalad', 'src': '/static/foodstim60/eggsalad.jpg', 'key': 'i', 'origWidth': 410, 'origHeight': 409, 'width': 410, 'height': 409, 'widthPercent': 0.45, 'rescaleHeight': False, 'trialN': 74, 'loaded': True, 'loadedTime': 2463, 'positionName': 'RIGHT', 'positionCoords': [998.4, 335.5], 'bid': 0.08}]",136777.90000009537,1669831025994,bagel and cc,eggsalad,2.54,0.08,-2.46,bagel and cc,1241.5,1242,1241.7999999523163,True,u,138529.40000009537,1751.5,1669831027746,1752,HRV,HRV_0154,2022-11-30 18:00:27
75,"[{'imgObject': {}, 'id': 'cherry tomato', 'src': '/static/foodstim60/cherry tomato.jpg', 'key': 'u', 'origWidth': 410, 'origHeight': 410, 'width': 410, 'height': 410, 'widthPercent': 0.45, 'rescaleHeight': False, 'trialN': 75, 'loaded': True, 'loadedTime': 2428.9000000953674, 'positionName': 'LEFT', 'positionCoords': [511.6, 335], 'bid': 0.64}, {'imgObject': {}, 'id': 'Tribe humus pita', 'src': '/static/foodstim60/Tribe humus pita.jpg', 'key': 'i', 'origWidth': 411, 'origHeight': 411, 'width': 411, 'height': 411, 'widthPercent': 0.45, 'rescaleHeight': False, 'trialN': 75, 'loaded': True, 'loadedTime': 2544, 'positionName': 'RIGHT', 'positionCoords': [998.4, 334.5], 'bid': 0.09}]",138529.5,1669831027746,cherry tomato,Tribe humus pita,0.64,0.09,-0.55,cherry tomato,923.6000000238419,924,923.8000000715256,True,u,139962.70000004768,1433.2000000476837,1669831029179,1433,HRV,HRV_0154,2022-11-30 18:00:27
76,"[{'imgObject': {}, 'id': 'chicken nuggets2', 'src': '/static/foodstim60/chicken nuggets2.jpg', 'key': 'u', 'origWidth': 410, 'origHeight': 409, 'width': 410, 'height': 409, 'widthPercent': 0.45, 'rescaleHeight': False, 'trialN': 76, 'loaded': True, 'loadedTime': 2526.100000023842, 'positionName': 'LEFT', 'positionCoords': [511.6, 335.5], 'bid': 9.87}, {'imgObject': {}, 'id': 'banana', 'src': '/static/foodstim60/banana.jpg', 'key': 'i', 'origWidth': 410, 'origHeight': 410, 'width': 410, 'height': 410, 'widthPercent': 0.45, 'rescaleHeight': False, 'trialN': 76, 'loaded': True, 'loadedTime': 2556.8000000715256, 'positionName': 'RIGHT', 'positionCoords': [998.4, 335], 'bid': 9.87}]",139962.80000007153,1669831029179,chicken nuggets2,banana,9.87,9.87,0.0,chicken nuggets2,814.1999999284744,815,814.5,True,u,141283.90000009537,1321.1000000238419,1669831030500,1321,HRV,HRV_0154,2022-11-30 18:00:27
77,"[{'imgObject': {}, 'id': 'ice cream sundae 002', 'src': '/static/foodstim60/ice cream sundae 002.jpg', 'key': 'u', 'origWidth': 409, 'origHeight': 409, 'width': 409, 'height': 409, 'widthPercent': 0.45, 'rescaleHeight': False, 'trialN': 77, 'loaded': True, 'loadedTime': 2557.8000000715256, 'positionName': 'LEFT', 'positionCoords': [512.6, 335.5], 'bid': 9.83}, {'imgObject': {}, 'id': 'salad w chicken', 'src': '/static/foodstim60/salad w chicken.jpg', 'key': 'i', 'origWidth': 411, 'origHeight': 411, 'width': 411, 'height': 411, 'widthPercent': 0.45, 'rescaleHeight': False, 'trialN': 77, 'loaded': True, 'loadedTime': 2572.3000000715256, 'positionName': 'RIGHT', 'positionCoords': [998.4, 334.5], 'bid': 4.1}]",141284.0,1669831030500,ice cream sundae 002,salad w chicken,9.83,4.1,-5.73,ice cream sundae 002,1220.2000000476837,1221,1220.4000000953674,True,u,143017.40000009537,1733.4000000953674,1669831032234,1734,HRV,HRV_0154,2022-11-30 18:00:27
78,"[{'imgObject': {}, 'id': 'baked potato', 'src': '/static/foodstim60/baked potato.jpg', 'key': 'u', 'origWidth': 409, 'origHeight': 410, 'width': 409, 'height': 410, 'widthPercent': 0.45, 'rescaleHeight': False, 'trialN': 78, 'loaded': True, 'loadedTime': 2554.3000000715256, 'positionName': 'LEFT', 'positionCoords': [512.6, 335], 'bid': 1.44}, {'imgObject': {}, 'id': 'yogurt no spoon', 'src': '/static/foodstim60/yogurt no spoon.jpg', 'key': 'i', 'origWidth': 411, 'origHeight': 410, 'width': 411, 'height': 410, 'widthPercent': 0.45, 'rescaleHeight': False, 'trialN': 78, 'loaded': True, 'loadedTime': 2572.4000000953674, 'positionName': 'RIGHT', 'positionCoords': [998.4, 335], 'bid': 1.97}]",143017.60000002384,1669831032234,baked potato,yogurt no spoon,1.44,1.97,0.53,baked potato,1460.7000000476837,1461,1460.8999999761581,True,u,144985.80000007153,1968.2000000476837,1669831034202,1968,HRV,HRV_0154,2022-11-30 18:00:27
79,"[{'imgObject': {}, 'id': 'hotdog w must', 'src': '/static/foodstim60/hotdog w must.jpg', 'key': 'u', 'origWidth': 409, 'origHeight': 409, 'width': 409, 'height': 409, 'widthPercent': 0.45, 'rescaleHeight': False, 'trialN': 79, 'loaded': True, 'loadedTime': 2533.4000000953674, 'positionName': 'LEFT', 'positionCoords': [512.6, 335.5], 'bid': 7}, {'imgObject': {}, 'id': 'Grapes', 'src': '/static/foodstim60/Grapes.jpg', 'key': 'i', 'origWidth': 411, 'origHeight': 411, 'width': 411, 'height': 411, 'widthPercent': 0.45, 'rescaleHeight': False, 'trialN': 79, 'loaded': True, 'loadedTime': 2574.2000000476837, 'positionName': 'RIGHT', 'positionCoords': [998.4, 334.5], 'bid': 9.88}]",144985.90000009537,1669831034202,hotdog w must,Grapes,7.0,9.88,2.880000000000001,Grapes,1121.1999999284744,1122,1121.3999999761581,True,i,146615.20000004768,1629.2999999523163,1669831035832,1630,HRV,HRV_0154,2022-11-30 18:00:27
80,"[{'imgObject': {}, 'id': 'yogurt no spoon', 'src': '/static/foodstim60/yogurt no spoon.jpg', 'key': 'u', 'origWidth': 411, 'origHeight': 410, 'width': 411, 'height': 410, 'widthPercent': 0.45, 'rescaleHeight': False, 'trialN': 80, 'loaded': True, 'loadedTime': 2573.2000000476837, 'positionName': 'LEFT', 'positionCoords': [510.6, 335], 'bid': 1.97}, {'imgObject': {}, 'id': 'burger', 'src': '/static/foodstim60/burger.jpg', 'key': 'i', 'origWidth': 409, 'origHeight': 409, 'width': 409, 'height': 409, 'widthPercent': 0.45, 'rescaleHeight': False, 'trialN': 80, 'loaded': True, 'loadedTime': 2564.600000023842, 'positionName': 'RIGHT', 'positionCoords': [998.4, 335.5], 'bid': 4.93}]",146615.40000009537,1669831035832,yogurt no spoon,burger,1.97,4.93,2.96,burger,1362.8999999761581,1363,1363.1999999284744,True,i,148490.90000009537,1875.5,1669831037707,1875,HRV,HRV_0154,2022-11-30 18:00:27
81,"[{'imgObject': {}, 'id': 'raisin bran w milk', 'src': '/static/foodstim60/raisin bran w milk.jpg', 'key': 'u', 'origWidth': 411, 'origHeight': 411, 'width': 411, 'height': 411, 'widthPercent': 0.45, 'rescaleHeight': False, 'trialN': 81, 'loaded': True, 'loadedTime': 2456.4000000953674, 'positionName': 'LEFT', 'positionCoords': [510.6, 334.5], 'bid': 0.41}, {'imgObject': {}, 'id': 'olives', 'src': '/static/foodstim60/olives.jpg', 'key': 'i', 'origWidth': 410, 'origHeight': 410, 'width': 410, 'height': 410, 'widthPercent': 0.45, 'rescaleHeight': False, 'trialN': 81, 'loaded': True, 'loadedTime': 2480, 'positionName': 'RIGHT', 'positionCoords': [998.4, 335], 'bid': 0.13}]",148491.0,1669831037707,raisin bran w milk,olives,0.41,0.13,-0.27999999999999997,olives,1528.1000000238419,1529,1528.3000000715256,True,i,150532.80000007153,2041.8000000715256,1669831039749,2042,HRV,HRV_0154,2022-11-30 18:00:27
82,"[{'imgObject': {}, 'id': 'corn cob', 'src': '/static/foodstim60/corn cob.jpg', 'key': 'u', 'origWidth': 411, 'origHeight': 411, 'width': 411, 'height': 411, 'widthPercent': 0.45, 'rescaleHeight': False, 'trialN': 82, 'loaded': True, 'loadedTime': 2570.9000000953674, 'positionName': 'LEFT', 'positionCoords': [510.6, 334.5], 'bid': 5.03}, {'imgObject': {}, 'id': 'burger', 'src': '/static/foodstim60/burger.jpg', 'key': 'i', 'origWidth': 409, 'origHeight': 409, 'width': 409, 'height': 409, 'widthPercent': 0.45, 'rescaleHeight': False, 'trialN': 82, 'loaded': True, 'loadedTime': 2562.2000000476837, 'positionName': 'RIGHT', 'positionCoords': [998.4, 335.5], 'bid': 4.93}]",150532.90000009537,1669831039749,corn cob,burger,5.03,4.93,-0.10000000000000053,corn cob,907.2999999523163,908,907.5,True,u,151952.10000002384,1419.1999999284744,1669831041168,1419,HRV,HRV_0154,2022-11-30 18:00:27
83,"[{'imgObject': {}, 'id': 'sweetpotato', 'src': '/static/foodstim60/sweetpotato.jpg', 'key': 'u', 'origWidth': 410, 'origHeight': 410, 'width': 410, 'height': 410, 'widthPercent': 0.45, 'rescaleHeight': False, 'trialN': 83, 'loaded': True, 'loadedTime': 2565, 'positionName': 'LEFT', 'positionCoords': [511.6, 335], 'bid': 0.38}, {'imgObject': {}, 'id': 'edamame', 'src': '/static/foodstim60/edamame.jpg', 'key': 'i', 'origWidth': 409, 'origHeight': 410, 'width': 409, 'height': 410, 'widthPercent': 0.45, 'rescaleHeight': False, 'trialN': 83, 'loaded': True, 'loadedTime': 2378, 'positionName': 'RIGHT', 'positionCoords': [998.4, 335], 'bid': 6.21}]",151952.20000004768,1669831041169,sweetpotato,edamame,0.38,6.21,5.83,edamame,1315.8999999761581,1316,1316.2000000476837,True,i,153775.70000004768,1823.5,1669831042992,1823,HRV,HRV_0154,2022-11-30 18:00:27
84,"[{'imgObject': {}, 'id': 'Grapes', 'src': '/static/foodstim60/Grapes.jpg', 'key': 'u', 'origWidth': 411, 'origHeight': 411, 'width': 411, 'height': 411, 'widthPercent': 0.45, 'rescaleHeight': False, 'trialN': 84, 'loaded': True, 'loadedTime': 2573.9000000953674, 'positionName': 'LEFT', 'positionCoords': [510.6, 334.5], 'bid': 9.88}, {'imgObject': {}, 'id': 'lox', 'src': '/static/foodstim60/lox.jpg', 'key': 'i', 'origWidth': 410, 'origHeight': 411, 'width': 410, 'height': 411, 'widthPercent': 0.45, 'rescaleHeight': False, 'trialN': 84, 'loaded': True, 'loadedTime': 2575.8000000715256, 'positionName': 'RIGHT', 'positionCoords': [998.4, 334.5], 'bid': 8.57}]",153775.80000007153,1669831042992,Grapes,lox,9.88,8.57,-1.3100000000000005,Grapes,955.3999999761581,956,955.6000000238419,True,u,155253.10000002384,1477.2999999523163,1669831044469,1477,HRV,HRV_0154,2022-11-30 18:00:27
85,"[{'imgObject': {}, 'id': 'sweetpotato', 'src': '/static/foodstim60/sweetpotato.jpg', 'key': 'u', 'origWidth': 410, 'origHeight': 410, 'width': 410, 'height': 410, 'widthPercent': 0.45, 'rescaleHeight': False, 'trialN': 85, 'loaded': True, 'loadedTime': 2565.7000000476837, 'positionName': 'LEFT', 'positionCoords': [511.6, 335], 'bid': 0.38}, {'imgObject': {}, 'id': 'burrito', 'src': '/static/foodstim60/burrito.jpg', 'key': 'i', 'origWidth': 410, 'origHeight': 410, 'width': 410, 'height': 410, 'widthPercent': 0.45, 'rescaleHeight': False, 'trialN': 85, 'loaded': True, 'loadedTime': 2395.8000000715256, 'positionName': 'RIGHT', 'positionCoords': [998.4, 335], 'bid': 0.34}]",155253.20000004768,1669831044470,sweetpotato,burrito,0.38,0.34,-0.03999999999999998,burrito,1467.8999999761581,1467,1468.2999999523163,True,i,157232.40000009537,1979.2000000476837,1669831046448,1978,HRV,HRV_0154,2022-11-30 18:00:27
86,"[{'imgObject': {}, 'id': 'froot loops w milk', 'src': '/static/foodstim60/froot loops w milk.jpg', 'key': 'u', 'origWidth': 410, 'origHeight': 410, 'width': 410, 'height': 410, 'widthPercent': 0.45, 'rescaleHeight': False, 'trialN': 86, 'loaded': True, 'loadedTime': 2390.8000000715256, 'positionName': 'LEFT', 'positionCoords': [511.6, 335], 'bid': 0.4}, {'imgObject': {}, 'id': 'burrito', 'src': '/static/foodstim60/burrito.jpg', 'key': 'i', 'origWidth': 410, 'origHeight': 410, 'width': 410, 'height': 410, 'widthPercent': 0.45, 'rescaleHeight': False, 'trialN': 86, 'loaded': True, 'loadedTime': 2399.100000023842, 'positionName': 'RIGHT', 'positionCoords': [998.4, 335], 'bid': 0.34}]",157232.5,1669831046448,froot loops w milk,burrito,0.4,0.34,-0.06,burrito,1017.7000000476837,1018,1018.0,True,i,158759.80000007153,1527.3000000715256,1669831047976,1528,HRV,HRV_0154,2022-11-30 18:00:27
87,"[{'imgObject': {}, 'id': 'turkey sandwich', 'src': '/static/foodstim60/turkey sandwich.jpg', 'key': 'u', 'origWidth': 409, 'origHeight': 409, 'width': 409, 'height': 409, 'widthPercent': 0.45, 'rescaleHeight': False, 'trialN': 87, 'loaded': True, 'loadedTime': 2504.9000000953674, 'positionName': 'LEFT', 'positionCoords': [512.6, 335.5], 'bid': 1.18}, {'imgObject': {}, 'id': 'cocktailshrimp', 'src': '/static/foodstim60/cocktailshrimp.jpg', 'key': 'i', 'origWidth': 410, 'origHeight': 410, 'width': 410, 'height': 410, 'widthPercent': 0.45, 'rescaleHeight': False, 'trialN': 87, 'loaded': True, 'loadedTime': 2551.5, 'positionName': 'RIGHT', 'positionCoords': [998.4, 335], 'bid': 3.51}]",158759.90000009537,1669831047976,turkey sandwich,cocktailshrimp,1.18,3.51,2.33,cocktailshrimp,1436.5,1437,1436.7999999523163,True,i,160707.5,1947.5999999046326,1669831049923,1947,HRV,HRV_0154,2022-11-30 18:00:27
88,"[{'imgObject': {}, 'id': 'grilled chicken strips', 'src': '/static/foodstim60/grilled chicken strips.jpg', 'key': 'u', 'origWidth': 410, 'origHeight': 411, 'width': 410, 'height': 411, 'widthPercent': 0.45, 'rescaleHeight': False, 'trialN': 88, 'loaded': True, 'loadedTime': 2496.3000000715256, 'positionName': 'LEFT', 'positionCoords': [511.6, 334.5], 'bid': 7.53}, {'imgObject': {}, 'id': 'hashbrowns', 'src': '/static/foodstim60/hashbrowns.jpg', 'key': 'i', 'origWidth': 411, 'origHeight': 410, 'width': 411, 'height': 410, 'widthPercent': 0.45, 'rescaleHeight': False, 'trialN': 88, 'loaded': True, 'loadedTime': 2436.600000023842, 'positionName': 'RIGHT', 'positionCoords': [998.4, 335], 'bid': 0.51}]",160707.60000002384,1669831049924,grilled chicken strips,hashbrowns,7.53,0.51,-7.0200000000000005,grilled chicken strips,1159.6000000238419,1159,1159.8000000715256,True,u,162387.10000002384,1679.5,1669831051603,1679,HRV,HRV_0154,2022-11-30 18:00:27
89,"[{'imgObject': {}, 'id': 'tacos', 'src': '/static/foodstim60/tacos.jpg', 'key': 'u', 'origWidth': 411, 'origHeight': 411, 'width': 411, 'height': 411, 'widthPercent': 0.45, 'rescaleHeight': False, 'trialN': 89, 'loaded': True, 'loadedTime': 2515.3000000715256, 'positionName': 'LEFT', 'positionCoords': [510.6, 334.5], 'bid': 4.04}, {'imgObject': {}, 'id': 'cocktailshrimp', 'src': '/static/foodstim60/cocktailshrimp.jpg', 'key': 'i', 'origWidth': 410, 'origHeight': 410, 'width': 410, 'height': 410, 'widthPercent': 0.45, 'rescaleHeight': False, 'trialN': 89, 'loaded': True, 'loadedTime': 2551.4000000953674, 'positionName': 'RIGHT', 'positionCoords': [998.4, 335], 'bid': 3.51}]",162387.20000004768,1669831051603,tacos,cocktailshrimp,4.04,3.51,-0.5300000000000002,cocktailshrimp,1379,1379,1379.2000000476837,True,i,164284.80000007153,1897.6000000238419,1669831053501,1898,HRV,HRV_0154,2022-11-30 18:00:27
90,"[{'imgObject': {}, 'id': 'Tribe humus pita', 'src': '/static/foodstim60/Tribe humus pita.jpg', 'key': 'u', 'origWidth': 411, 'origHeight': 411, 'width': 411, 'height': 411, 'widthPercent': 0.45, 'rescaleHeight': False, 'trialN': 90, 'loaded': True, 'loadedTime': 2544.100000023842, 'positionName': 'LEFT', 'positionCoords': [510.6, 334.5], 'bid': 0.09}, {'imgObject': {}, 'id': 'sushi w_condiments', 'src': '/static/foodstim60/sushi w_condiments.jpg', 'key': 'i', 'origWidth': 410, 'origHeight': 410, 'width': 410, 'height': 410, 'widthPercent': 0.45, 'rescaleHeight': False, 'trialN': 90, 'loaded': True, 'loadedTime': 2575, 'positionName': 'RIGHT', 'positionCoords': [998.4, 335], 'bid': 0.08}]",188159.60000002384,1669831077376,Tribe humus pita,sushi w_condiments,0.09,0.08,-0.009999999999999995,Tribe humus pita,3288.5,3288,3288.8000000715256,True,u,191961.0,3801.399999976158,1669831081177,3801,HRV,HRV_0154,2022-11-30 18:00:27
91,"[{'imgObject': {}, 'id': 'fruitsalad', 'src': '/static/foodstim60/fruitsalad.jpg', 'key': 'u', 'origWidth': 410, 'origHeight': 410, 'width': 410, 'height': 410, 'widthPercent': 0.45, 'rescaleHeight': False, 'trialN': 91, 'loaded': True, 'loadedTime': 2550.5, 'positionName': 'LEFT', 'positionCoords': [511.6, 335], 'bid': 4.32}, {'imgObject': {}, 'id': 'chickenfingers', 'src': '/static/foodstim60/chickenfingers.jpg', 'key': 'i', 'origWidth': 410, 'origHeight': 410, 'width': 410, 'height': 410, 'widthPercent': 0.45, 'rescaleHeight': False, 'trialN': 91, 'loaded': True, 'loadedTime': 2447.600000023842, 'positionName': 'RIGHT', 'positionCoords': [998.4, 335], 'bid': 9.83}]",191961.0,1669831081177,fruitsalad,chickenfingers,4.32,9.83,5.51,chickenfingers,1511.1000000238419,1511,1511.3000000715256,True,i,193976.20000004768,2015.2000000476837,1669831083192,2015,HRV,HRV_0154,2022-11-30 18:00:27
92,"[{'imgObject': {}, 'id': 'mac & cheese', 'src': '/static/foodstim60/mac & cheese.jpg', 'key': 'u', 'origWidth': 410, 'origHeight': 410, 'width': 410, 'height': 410, 'widthPercent': 0.45, 'rescaleHeight': False, 'trialN': 92, 'loaded': True, 'loadedTime': 2500.2000000476837, 'positionName': 'LEFT', 'positionCoords': [511.6, 335], 'bid': 0.25}, {'imgObject': {}, 'id': 'olives', 'src': '/static/foodstim60/olives.jpg', 'key': 'i', 'origWidth': 410, 'origHeight': 410, 'width': 410, 'height': 410, 'widthPercent': 0.45, 'rescaleHeight': False, 'trialN': 92, 'loaded': True, 'loadedTime': 2482.5, 'positionName': 'RIGHT', 'positionCoords': [998.4, 335], 'bid': 0.13}]",193976.40000009537,1669831083192,mac & cheese,olives,0.25,0.13,-0.12,olives,909.6999999284744,910,909.8999999761581,True,i,195391.60000002384,1415.1999999284744,1669831084608,1416,HRV,HRV_0154,2022-11-30 18:00:27
93,"[{'imgObject': {}, 'id': 'luckycharms', 'src': '/static/foodstim60/luckycharms.jpg', 'key': 'u', 'origWidth': 410, 'origHeight': 409, 'width': 410, 'height': 409, 'widthPercent': 0.45, 'rescaleHeight': False, 'trialN': 93, 'loaded': True, 'loadedTime': 2570.2000000476837, 'positionName': 'LEFT', 'positionCoords': [511.6, 335.5], 'bid': 1.02}, {'imgObject': {}, 'id': 'kiwi', 'src': '/static/foodstim60/kiwi.jpg', 'key': 'i', 'origWidth': 410, 'origHeight': 410, 'width': 410, 'height': 410, 'widthPercent': 0.45, 'rescaleHeight': False, 'trialN': 93, 'loaded': True, 'loadedTime': 2439.7000000476837, 'positionName': 'RIGHT', 'positionCoords': [998.4, 335], 'bid': 1.21}]",195391.80000007153,1669831084608,luckycharms,kiwi,1.02,1.21,0.18999999999999995,kiwi,896.5,897,896.7999999523163,True,i,196794.90000009537,1403.1000000238419,1669831086011,1403,HRV,HRV_0154,2022-11-30 18:00:27
94,"[{'imgObject': {}, 'id': 'seaweed', 'src': '/static/foodstim60/seaweed.jpg', 'key': 'u', 'origWidth': 410, 'origHeight': 410, 'width': 410, 'height': 410, 'widthPercent': 0.45, 'rescaleHeight': False, 'trialN': 94, 'loaded': True, 'loadedTime': 2477.2000000476837, 'positionName': 'LEFT', 'positionCoords': [511.6, 335], 'bid': 0.1}, {'imgObject': {}, 'id': 'rigatoni and sauce', 'src': '/static/foodstim60/rigatoni and sauce.jpg', 'key': 'i', 'origWidth': 410, 'origHeight': 411, 'width': 410, 'height': 411, 'widthPercent': 0.45, 'rescaleHeight': False, 'trialN': 94, 'loaded': True, 'loadedTime': 2579.4000000953674, 'positionName': 'RIGHT', 'positionCoords': [998.4, 334.5], 'bid': 0.15}]",196795.0,1669831086011,seaweed,rigatoni and sauce,0.1,0.15,0.04999999999999999,rigatoni and sauce,1193.3000000715256,1194,1193.6000000238419,True,i,198504.40000009537,1709.4000000953674,1669831087720,1709,HRV,HRV_0154,2022-11-30 18:00:27
95,"[{'imgObject': {}, 'id': 'turkey sandwich', 'src': '/static/foodstim60/turkey sandwich.jpg', 'key': 'u', 'origWidth': 409, 'origHeight': 409, 'width': 409, 'height': 409, 'widthPercent': 0.45, 'rescaleHeight': False, 'trialN': 95, 'loaded': True, 'loadedTime': 2503.3000000715256, 'positionName': 'LEFT', 'positionCoords': [512.6, 335.5], 'bid': 1.18}, {'imgObject': {}, 'id': 'chicken nuggets2', 'src': '/static/foodstim60/chicken nuggets2.jpg', 'key': 'i', 'origWidth': 410, 'origHeight': 409, 'width': 410, 'height': 409, 'widthPercent': 0.45, 'rescaleHeight': False, 'trialN': 95, 'loaded': True, 'loadedTime': 2525.8000000715256, 'positionName': 'RIGHT', 'positionCoords': [998.4, 335.5], 'bid': 9.87}]",198504.60000002384,1669831087720,turkey sandwich,chicken nuggets2,1.18,9.87,8.69,chicken nuggets2,887.5,888,887.8000000715256,True,i,199905.60000002384,1401.0,1669831089122,1402,HRV,HRV_0154,2022-11-30 18:00:27
96,"[{'imgObject': {}, 'id': 'cherries', 'src': '/static/foodstim60/cherries.jpg', 'key': 'u', 'origWidth': 410, 'origHeight': 411, 'width': 410, 'height': 411, 'widthPercent': 0.45, 'rescaleHeight': False, 'trialN': 96, 'loaded': True, 'loadedTime': 2414.9000000953674, 'positionName': 'LEFT', 'positionCoords': [511.6, 334.5], 'bid': 9.9}, {'imgObject': {}, 'id': 'popsicles', 'src': '/static/foodstim60/popsicles.jpg', 'key': 'i', 'origWidth': 410, 'origHeight': 410, 'width': 410, 'height': 410, 'widthPercent': 0.45, 'rescaleHeight': False, 'trialN': 96, 'loaded': True, 'loadedTime': 2581.7000000476837, 'positionName': 'RIGHT', 'positionCoords': [998.4, 335], 'bid': 9.56}]",199905.80000007153,1669831089122,cherries,popsicles,9.9,9.56,-0.33999999999999986,popsicles,810.2999999523163,810,810.5,True,i,201228.90000009537,1323.1000000238419,1669831090445,1323,HRV,HRV_0154,2022-11-30 18:00:27
97,"[{'imgObject': {}, 'id': 'edamame', 'src': '/static/foodstim60/edamame.jpg', 'key': 'u', 'origWidth': 409, 'origHeight': 410, 'width': 409, 'height': 410, 'widthPercent': 0.45, 'rescaleHeight': False, 'trialN': 97, 'loaded': True, 'loadedTime': 2380.600000023842, 'positionName': 'LEFT', 'positionCoords': [512.6, 335], 'bid': 6.21}, {'imgObject': {}, 'id': 'raspberries', 'src': '/static/foodstim60/raspberries.jpg', 'key': 'i', 'origWidth': 411, 'origHeight': 411, 'width': 411, 'height': 411, 'widthPercent': 0.45, 'rescaleHeight': False, 'trialN': 97, 'loaded': True, 'loadedTime': 2517.7000000476837, 'positionName': 'RIGHT', 'positionCoords': [998.4, 334.5], 'bid': 5.9}]",201229.0,1669831090445,edamame,raspberries,6.21,5.9,-0.3099999999999996,raspberries,1070.1000000238419,1070,1070.4000000953674,True,i,202821.40000009537,1592.4000000953674,1669831092037,1592,HRV,HRV_0154,2022-11-30 18:00:27
98,"[{'imgObject': {}, 'id': 'eggs', 'src': '/static/foodstim60/eggs.jpg', 'key': 'u', 'origWidth': 409, 'origHeight': 409, 'width': 409, 'height': 409, 'widthPercent': 0.45, 'rescaleHeight': False, 'trialN': 98, 'loaded': True, 'loadedTime': 2377.600000023842, 'positionName': 'LEFT', 'positionCoords': [512.6, 335.5], 'bid': 5.8500000000000005}, {'imgObject': {}, 'id': 'blueberries', 'src': '/static/foodstim60/blueberries.jpg', 'key': 'i', 'origWidth': 411, 'origHeight': 411, 'width': 411, 'height': 411, 'widthPercent': 0.45, 'rescaleHeight': False, 'trialN': 98, 'loaded': True, 'loadedTime': 2520.8000000715256, 'positionName': 'RIGHT', 'positionCoords': [998.4, 334.5], 'bid': 5.69}]",202821.5,1669831092037,eggs,blueberries,5.8500000000000005,5.69,-0.16000000000000014,blueberries,882.6000000238419,883,883.0,True,i,204219.60000002384,1398.1000000238419,1669831093436,1399,HRV,HRV_0154,2022-11-30 18:00:27
99,"[{'imgObject': {}, 'id': 'Grapes', 'src': '/static/foodstim60/Grapes.jpg', 'key': 'u', 'origWidth': 411, 'origHeight': 411, 'width': 411, 'height': 411, 'widthPercent': 0.45, 'rescaleHeight': False, 'trialN': 99, 'loaded': True, 'loadedTime': 2573.2000000476837, 'positionName': 'LEFT', 'positionCoords': [510.6, 334.5], 'bid': 9.88}, {'imgObject': {}, 'id': 'corn cob', 'src': '/static/foodstim60/corn cob.jpg', 'key': 'i', 'origWidth': 411, 'origHeight': 411, 'width': 411, 'height': 411, 'widthPercent': 0.45, 'rescaleHeight': False, 'trialN': 99, 'loaded': True, 'loadedTime': 2571.2000000476837, 'positionName': 'RIGHT', 'positionCoords': [998.4, 334.5], 'bid': 5.03}]",204219.70000004768,1669831093436,Grapes,corn cob,9.88,5.03,-4.8500000000000005,Grapes,1038.6000000238419,1038,1038.7999999523163,True,u,205766.5,1546.7999999523163,1669831094982,1546,HRV,HRV_0154,2022-11-30 18:00:27
100,"[{'imgObject': {}, 'id': 'rigatoni and sauce', 'src': '/static/foodstim60/rigatoni and sauce.jpg', 'key': 'u', 'origWidth': 410, 'origHeight': 411, 'width': 410, 'height': 411, 'widthPercent': 0.45, 'rescaleHeight': False, 'trialN': 100, 'loaded': True, 'loadedTime': 2579.7000000476837, 'positionName': 'LEFT', 'positionCoords': [511.6, 334.5], 'bid': 0.15}, {'imgObject': {}, 'id': 'luckycharms', 'src': '/static/foodstim60/luckycharms.jpg', 'key': 'i', 'origWidth': 410, 'origHeight': 409, 'width': 410, 'height': 409, 'widthPercent': 0.45, 'rescaleHeight': False, 'trialN': 100, 'loaded': True, 'loadedTime': 2567, 'positionName': 'RIGHT', 'positionCoords': [998.4, 335.5], 'bid': 1.02}]",205766.60000002384,1669831094983,rigatoni and sauce,luckycharms,0.15,1.02,0.87,luckycharms,1141.6000000238419,1141,1141.7000000476837,True,i,207424.0,1657.3999999761581,1669831096640,1657,HRV,HRV_0154,2022-11-30 18:00:27
101,"[{'imgObject': {}, 'id': 'rigatoni', 'src': '/static/foodstim60/rigatoni.jpg', 'key': 'u', 'origWidth': 411, 'origHeight': 411, 'width': 411, 'height': 411, 'widthPercent': 0.45, 'rescaleHeight': False, 'trialN': 101, 'loaded': True, 'loadedTime': 2566.600000023842, 'positionName': 'LEFT', 'positionCoords': [510.6, 334.5], 'bid': 0.8200000000000001}, {'imgObject': {}, 'id': 'froot loops w milk', 'src': '/static/foodstim60/froot loops w milk.jpg', 'key': 'i', 'origWidth': 410, 'origHeight': 410, 'width': 410, 'height': 410, 'widthPercent': 0.45, 'rescaleHeight': False, 'trialN': 101, 'loaded': True, 'loadedTime': 2393.600000023842, 'positionName': 'RIGHT', 'positionCoords': [998.4, 335], 'bid': 0.4}]",207424.10000002384,1669831096640,rigatoni,froot loops w milk,0.8200000000000001,0.4,-0.42000000000000004,froot loops w milk,1460.3999999761581,1461,1460.6000000238419,True,i,209403.80000007153,1979.7000000476837,1669831098620,1980,HRV,HRV_0154,2022-11-30 18:00:27
102,"[{'imgObject': {}, 'id': 'corn cob', 'src': '/static/foodstim60/corn cob.jpg', 'key': 'u', 'origWidth': 411, 'origHeight': 411, 'width': 411, 'height': 411, 'widthPercent': 0.45, 'rescaleHeight': False, 'trialN': 102, 'loaded': True, 'loadedTime': 2571, 'positionName': 'LEFT', 'positionCoords': [510.6, 334.5], 'bid': 5.03}, {'imgObject': {}, 'id': 'turkeysandwich', 'src': '/static/foodstim60/turkeysandwich.jpg', 'key': 'i', 'origWidth': 409, 'origHeight': 409, 'width': 409, 'height': 409, 'widthPercent': 0.45, 'rescaleHeight': False, 'trialN': 102, 'loaded': True, 'loadedTime': 2512.100000023842, 'positionName': 'RIGHT', 'positionCoords': [998.4, 335.5], 'bid': 0.29}]",209403.90000009537,1669831098620,corn cob,turkeysandwich,5.03,0.29,-4.74,corn cob,926.1999999284744,926,926.5,True,u,210849.20000004768,1445.2999999523163,1669831100065,1445,HRV,HRV_0154,2022-11-30 18:00:27
103,"[{'imgObject': {}, 'id': 'banana', 'src': '/static/foodstim60/banana.jpg', 'key': 'u', 'origWidth': 410, 'origHeight': 410, 'width': 410, 'height': 410, 'widthPercent': 0.45, 'rescaleHeight': False, 'trialN': 103, 'loaded': True, 'loadedTime': 2557.7000000476837, 'positionName': 'LEFT', 'positionCoords': [511.6, 335], 'bid': 9.87}, {'imgObject': {}, 'id': 'pear', 'src': '/static/foodstim60/pear.jpg', 'key': 'i', 'origWidth': 411, 'origHeight': 410, 'width': 411, 'height': 410, 'widthPercent': 0.45, 'rescaleHeight': False, 'trialN': 103, 'loaded': True, 'loadedTime': 2486.7000000476837, 'positionName': 'RIGHT', 'positionCoords': [998.4, 335], 'bid': 9.95}]",210849.30000007153,1669831100065,banana,pear,9.87,9.95,0.08000000000000007,banana,728.8999999761581,729,729.1999999284744,True,u,212090.30000007153,1241.0,1669831101306,1241,HRV,HRV_0154,2022-11-30 18:00:27
104,"[{'imgObject': {}, 'id': 'froot loops w milk', 'src': '/static/foodstim60/froot loops w milk.jpg', 'key': 'u', 'origWidth': 410, 'origHeight': 410, 'width': 410, 'height': 410, 'widthPercent': 0.45, 'rescaleHeight': False, 'trialN': 104, 'loaded': True, 'loadedTime': 2393.4000000953674, 'positionName': 'LEFT', 'positionCoords': [511.6, 335], 'bid': 0.4}, {'imgObject': {}, 'id': 'hotdog w must', 'src': '/static/foodstim60/hotdog w must.jpg', 'key': 'i', 'origWidth': 409, 'origHeight': 409, 'width': 409, 'height': 409, 'widthPercent': 0.45, 'rescaleHeight': False, 'trialN': 104, 'loaded': True, 'loadedTime': 2533.600000023842, 'positionName': 'RIGHT', 'positionCoords': [998.4, 335.5], 'bid': 7}]",212090.40000009537,1669831101306,froot loops w milk,hotdog w must,0.4,7.0,6.6,hotdog w must,1021.7999999523163,1022,1022.0,True,i,213623.70000004768,1533.2999999523163,1669831102840,1534,HRV,HRV_0154,2022-11-30 18:00:27
105,"[{'imgObject': {}, 'id': 'tacos', 'src': '/static/foodstim60/tacos.jpg', 'key': 'u', 'origWidth': 411, 'origHeight': 411, 'width': 411, 'height': 411, 'widthPercent': 0.45, 'rescaleHeight': False, 'trialN': 105, 'loaded': True, 'loadedTime': 2515.5, 'positionName': 'LEFT', 'positionCoords': [510.6, 334.5], 'bid': 4.04}, {'imgObject': {}, 'id': 'salad w chicken', 'src': '/static/foodstim60/salad w chicken.jpg', 'key': 'i', 'origWidth': 411, 'origHeight': 411, 'width': 411, 'height': 411, 'widthPercent': 0.45, 'rescaleHeight': False, 'trialN': 105, 'loaded': True, 'loadedTime': 2572, 'positionName': 'RIGHT', 'positionCoords': [998.4, 334.5], 'bid': 4.1}]",213623.80000007153,1669831102840,tacos,salad w chicken,4.04,4.1,0.05999999999999961,salad w chicken,1214.3999999761581,1214,1214.5,True,i,215353.20000004768,1729.3999999761581,1669831104569,1729,HRV,HRV_0154,2022-11-30 18:00:27
106,"[{'imgObject': {}, 'id': 'salad w chicken', 'src': '/static/foodstim60/salad w chicken.jpg', 'key': 'u', 'origWidth': 411, 'origHeight': 411, 'width': 411, 'height': 411, 'widthPercent': 0.45, 'rescaleHeight': False, 'trialN': 106, 'loaded': True, 'loadedTime': 2571.4000000953674, 'positionName': 'LEFT', 'positionCoords': [510.6, 334.5], 'bid': 4.1}, {'imgObject': {}, 'id': 'cantaloupe', 'src': '/static/foodstim60/cantaloupe.jpg', 'key': 'i', 'origWidth': 409, 'origHeight': 409, 'width': 409, 'height': 409, 'widthPercent': 0.45, 'rescaleHeight': False, 'trialN': 106, 'loaded': True, 'loadedTime': 2538, 'positionName': 'RIGHT', 'positionCoords': [998.4, 335.5], 'bid': 3.52}]",215353.40000009537,1669831104569,salad w chicken,cantaloupe,4.1,3.52,-0.5799999999999996,salad w chicken,1984.7999999523163,1985,1985.0,True,u,217851.0,2497.5999999046326,1669831107067,2498,HRV,HRV_0154,2022-11-30 18:00:27
107,"[{'imgObject': {}, 'id': 'popsicles', 'src': '/static/foodstim60/popsicles.jpg', 'key': 'u', 'origWidth': 410, 'origHeight': 410, 'width': 410, 'height': 410, 'widthPercent': 0.45, 'rescaleHeight': False, 'trialN': 107, 'loaded': True, 'loadedTime': 2581.7000000476837, 'positionName': 'LEFT', 'positionCoords': [511.6, 335], 'bid': 9.56}, {'imgObject': {}, 'id': 'lox', 'src': '/static/foodstim60/lox.jpg', 'key': 'i', 'origWidth': 410, 'origHeight': 411, 'width': 410, 'height': 411, 'widthPercent': 0.45, 'rescaleHeight': False, 'trialN': 107, 'loaded': True, 'loadedTime': 2576.100000023842, 'positionName': 'RIGHT', 'positionCoords': [998.4, 334.5], 'bid': 8.57}]",217851.10000002384,1669831107067,popsicles,lox,9.56,8.57,-0.9900000000000002,popsicles,886,886,886.2000000476837,True,u,219250.30000007153,1399.2000000476837,1669831108466,1399,HRV,HRV_0154,2022-11-30 18:00:27
108,"[{'imgObject': {}, 'id': 'burger', 'src': '/static/foodstim60/burger.jpg', 'key': 'u', 'origWidth': 409, 'origHeight': 409, 'width': 409, 'height': 409, 'widthPercent': 0.45, 'rescaleHeight': False, 'trialN': 108, 'loaded': True, 'loadedTime': 2564.9000000953674, 'positionName': 'LEFT', 'positionCoords': [512.6, 335.5], 'bid': 4.93}, {'imgObject': {}, 'id': 'chicken nuggets2', 'src': '/static/foodstim60/chicken nuggets2.jpg', 'key': 'i', 'origWidth': 410, 'origHeight': 409, 'width': 410, 'height': 409, 'widthPercent': 0.45, 'rescaleHeight': False, 'trialN': 108, 'loaded': True, 'loadedTime': 2524.8000000715256, 'positionName': 'RIGHT', 'positionCoords': [998.4, 335.5], 'bid': 9.87}]",219250.40000009537,1669831108466,burger,chicken nuggets2,4.93,9.87,4.9399999999999995,chicken nuggets2,988.8999999761581,989,989.0999999046326,True,i,220753.60000002384,1503.1999999284744,1669831109969,1503,HRV,HRV_0154,2022-11-30 18:00:27
