trialN,stimuli,trialStartTime,trialStartTime_UNIX,stimulus1,stimulus2,stimulus1Bid,stimulus2Bid,delta,selected,rt,rt_UNIX,rt_perfnow,receivedResponse,rsp,trialEndTime,trialDuration,trialEndTime_UNIX,trialDuration_UNIX,exp,subjectId,date
0,"[{'imgObject': {}, 'id': 'raisin bran w milk', 'src': '/static/foodstim60/raisin bran w milk.jpg', 'key': 'u', 'origWidth': 411, 'origHeight': 411, 'width': 411, 'height': 411, 'widthPercent': 0.45, 'rescaleHeight': False, 'trialN': 0, 'loaded': True, 'loadedTime': 3340.9000000953674, 'positionName': 'LEFT', 'positionCoords': [294.6, 254.5], 'bid': 1.82}, {'imgObject': {}, 'id': 'corn cob', 'src': '/static/foodstim60/corn cob.jpg', 'key': 'i', 'origWidth': 411, 'origHeight': 411, 'width': 411, 'height': 411, 'widthPercent': 0.45, 'rescaleHeight': False, 'trialN': 0, 'loaded': True, 'loadedTime': 3354.600000023842, 'positionName': 'RIGHT', 'positionCoords': [764.4, 254.5], 'bid': 5.8}]",3713.0,1669829237217,raisin bran w milk,corn cob,1.82,5.8,3.9799999999999995,corn cob,1553.5,1558,1558.7000000476837,True,i,5773.0,2060.0,1669829239277,2060,HRV,HRV_0008,2022-11-30 17:32:36
1,"[{'imgObject': {}, 'id': 'ice cream sundae 002', 'src': '/static/foodstim60/ice cream sundae 002.jpg', 'key': 'u', 'origWidth': 409, 'origHeight': 409, 'width': 409, 'height': 409, 'widthPercent': 0.45, 'rescaleHeight': False, 'trialN': 1, 'loaded': True, 'loadedTime': 3358.9000000953674, 'positionName': 'LEFT', 'positionCoords': [296.6, 255.5], 'bid': 6}, {'imgObject': {}, 'id': 'blueberries', 'src': '/static/foodstim60/blueberries.jpg', 'key': 'i', 'origWidth': 411, 'origHeight': 411, 'width': 411, 'height': 411, 'widthPercent': 0.45, 'rescaleHeight': False, 'trialN': 1, 'loaded': True, 'loadedTime': 3366.100000023842, 'positionName': 'RIGHT', 'positionCoords': [764.4, 254.5], 'bid': 2.26}]",5773.400000095367,1669829239277,ice cream sundae 002,blueberries,6.0,2.26,-3.74,ice cream sundae 002,1047.6999999284744,1053,1052.7999999523163,True,u,7326.600000023842,1553.1999999284744,1669829240830,1553,HRV,HRV_0008,2022-11-30 17:32:36
2,"[{'imgObject': {}, 'id': 'cherries', 'src': '/static/foodstim60/cherries.jpg', 'key': 'u', 'origWidth': 410, 'origHeight': 411, 'width': 410, 'height': 411, 'widthPercent': 0.45, 'rescaleHeight': False, 'trialN': 2, 'loaded': True, 'loadedTime': 3364, 'positionName': 'LEFT', 'positionCoords': [295.6, 254.5], 'bid': 1.31}, {'imgObject': {}, 'id': 'cheerios', 'src': '/static/foodstim60/cheerios.jpg', 'key': 'i', 'origWidth': 409, 'origHeight': 410, 'width': 409, 'height': 410, 'widthPercent': 0.45, 'rescaleHeight': False, 'trialN': 2, 'loaded': True, 'loadedTime': 3356.4000000953674, 'positionName': 'RIGHT', 'positionCoords': [764.4, 255], 'bid': 0.9}]",7326.800000071526,1669829240831,cherries,cheerios,1.31,0.9,-0.41000000000000003,cheerios,1489.8999999761581,1494,1494.3999999761581,True,i,9321.600000023842,1994.7999999523163,1669829242825,1994,HRV,HRV_0008,2022-11-30 17:32:36
3,"[{'imgObject': {}, 'id': 'shreddedwheatwithmilk', 'src': '/static/foodstim60/shreddedwheatwithmilk.jpg', 'key': 'u', 'origWidth': 410, 'origHeight': 410, 'width': 410, 'height': 410, 'widthPercent': 0.45, 'rescaleHeight': False, 'trialN': 3, 'loaded': True, 'loadedTime': 3399.4000000953674, 'positionName': 'LEFT', 'positionCoords': [295.6, 255], 'bid': 3.38}, {'imgObject': {}, 'id': 'hashbrowns', 'src': '/static/foodstim60/hashbrowns.jpg', 'key': 'i', 'origWidth': 411, 'origHeight': 410, 'width': 411, 'height': 410, 'widthPercent': 0.45, 'rescaleHeight': False, 'trialN': 3, 'loaded': True, 'loadedTime': 3400.3000000715256, 'positionName': 'RIGHT', 'positionCoords': [764.4, 255], 'bid': 1.95}]",9321.900000095367,1669829242825,shreddedwheatwithmilk,hashbrowns,3.38,1.95,-1.43,hashbrowns,1177.8999999761581,1182,1181.8999999761581,True,i,11004.100000023842,1682.1999999284744,1669829244508,1683,HRV,HRV_0008,2022-11-30 17:32:36
4,"[{'imgObject': {}, 'id': 'eggs', 'src': '/static/foodstim60/eggs.jpg', 'key': 'u', 'origWidth': 409, 'origHeight': 409, 'width': 409, 'height': 409, 'widthPercent': 0.45, 'rescaleHeight': False, 'trialN': 4, 'loaded': True, 'loadedTime': 3415.8000000715256, 'positionName': 'LEFT', 'positionCoords': [296.6, 255.5], 'bid': 8.41}, {'imgObject': {}, 'id': 'Tribe humus pita', 'src': '/static/foodstim60/Tribe humus pita.jpg', 'key': 'i', 'origWidth': 411, 'origHeight': 411, 'width': 411, 'height': 411, 'widthPercent': 0.45, 'rescaleHeight': False, 'trialN': 4, 'loaded': True, 'loadedTime': 3430.100000023842, 'positionName': 'RIGHT', 'positionCoords': [764.4, 254.5], 'bid': 7.66}]",11004.200000047684,1669829244508,eggs,Tribe humus pita,8.41,7.66,-0.75,eggs,1105.2999999523163,1110,1109.7999999523163,True,u,12614.400000095367,1610.2000000476837,1669829246118,1610,HRV,HRV_0008,2022-11-30 17:32:36
5,"[{'imgObject': {}, 'id': 'edamame', 'src': '/static/foodstim60/edamame.jpg', 'key': 'u', 'origWidth': 409, 'origHeight': 410, 'width': 409, 'height': 410, 'widthPercent': 0.45, 'rescaleHeight': False, 'trialN': 5, 'loaded': True, 'loadedTime': 3444.2000000476837, 'positionName': 'LEFT', 'positionCoords': [296.6, 255], 'bid': 6.4}, {'imgObject': {}, 'id': 'strawberries', 'src': '/static/foodstim60/strawberries.jpg', 'key': 'i', 'origWidth': 410, 'origHeight': 410, 'width': 410, 'height': 410, 'widthPercent': 0.45, 'rescaleHeight': False, 'trialN': 5, 'loaded': True, 'loadedTime': 3459.4000000953674, 'positionName': 'RIGHT', 'positionCoords': [764.4, 255], 'bid': 3.69}]",12614.600000023842,1669829246118,edamame,strawberries,6.4,3.69,-2.7100000000000004,edamame,1458.0,1463,1462.6000000238419,True,u,14577.700000047684,1963.1000000238419,1669829248081,1963,HRV,HRV_0008,2022-11-30 17:32:36
6,"[{'imgObject': {}, 'id': 'banana', 'src': '/static/foodstim60/banana.jpg', 'key': 'u', 'origWidth': 410, 'origHeight': 410, 'width': 410, 'height': 410, 'widthPercent': 0.45, 'rescaleHeight': False, 'trialN': 6, 'loaded': True, 'loadedTime': 3473.5, 'positionName': 'LEFT', 'positionCoords': [295.6, 255], 'bid': 8.9}, {'imgObject': {}, 'id': 'burrito', 'src': '/static/foodstim60/burrito.jpg', 'key': 'i', 'origWidth': 410, 'origHeight': 410, 'width': 410, 'height': 410, 'widthPercent': 0.45, 'rescaleHeight': False, 'trialN': 6, 'loaded': True, 'loadedTime': 3487.5, 'positionName': 'RIGHT', 'positionCoords': [764.4, 255], 'bid': 8.63}]",14578.0,1669829248082,banana,burrito,8.9,8.63,-0.2699999999999996,burrito,874.5,879,879.0,True,i,15957.400000095367,1379.4000000953674,1669829249461,1379,HRV,HRV_0008,2022-11-30 17:32:36
7,"[{'imgObject': {}, 'id': 'kiwi', 'src': '/static/foodstim60/kiwi.jpg', 'key': 'u', 'origWidth': 410, 'origHeight': 410, 'width': 410, 'height': 410, 'widthPercent': 0.45, 'rescaleHeight': False, 'trialN': 7, 'loaded': True, 'loadedTime': 3502.4000000953674, 'positionName': 'LEFT', 'positionCoords': [295.6, 255], 'bid': 1.28}, {'imgObject': {}, 'id': 'orange slices', 'src': '/static/foodstim60/orange slices.jpg', 'key': 'i', 'origWidth': 409, 'origHeight': 410, 'width': 409, 'height': 410, 'widthPercent': 0.45, 'rescaleHeight': False, 'trialN': 7, 'loaded': True, 'loadedTime': 3517.4000000953674, 'positionName': 'RIGHT', 'positionCoords': [764.4, 255], 'bid': 2.87}]",15957.700000047684,1669829249461,kiwi,orange slices,1.28,2.87,1.59,orange slices,1269.7000000476837,1275,1274.2000000476837,True,i,17732.300000071526,1774.6000000238419,1669829251236,1775,HRV,HRV_0008,2022-11-30 17:32:36
8,"[{'imgObject': {}, 'id': 'turkeysandwich', 'src': '/static/foodstim60/turkeysandwich.jpg', 'key': 'u', 'origWidth': 409, 'origHeight': 409, 'width': 409, 'height': 409, 'widthPercent': 0.45, 'rescaleHeight': False, 'trialN': 8, 'loaded': True, 'loadedTime': 3530.600000023842, 'positionName': 'LEFT', 'positionCoords': [296.6, 255.5], 'bid': 8.85}, {'imgObject': {}, 'id': 'rigatoni and sauce', 'src': '/static/foodstim60/rigatoni and sauce.jpg', 'key': 'i', 'origWidth': 410, 'origHeight': 411, 'width': 410, 'height': 411, 'widthPercent': 0.45, 'rescaleHeight': False, 'trialN': 8, 'loaded': True, 'loadedTime': 3544.5, 'positionName': 'RIGHT', 'positionCoords': [764.4, 254.5], 'bid': 8.23}]",17732.700000047684,1669829251236,turkeysandwich,rigatoni and sauce,8.85,8.23,-0.6199999999999992,rigatoni and sauce,798.0,801,800.7000000476837,True,i,19033.700000047684,1301.0,1669829252537,1301,HRV,HRV_0008,2022-11-30 17:32:36
9,"[{'imgObject': {}, 'id': 'popsicles', 'src': '/static/foodstim60/popsicles.jpg', 'key': 'u', 'origWidth': 410, 'origHeight': 410, 'width': 410, 'height': 410, 'widthPercent': 0.45, 'rescaleHeight': False, 'trialN': 9, 'loaded': True, 'loadedTime': 3711.100000023842, 'positionName': 'LEFT', 'positionCoords': [295.6, 255], 'bid': 6.71}, {'imgObject': {}, 'id': 'veggieswithdip', 'src': '/static/foodstim60/veggieswithdip.jpg', 'key': 'i', 'origWidth': 409, 'origHeight': 409, 'width': 409, 'height': 409, 'widthPercent': 0.45, 'rescaleHeight': False, 'trialN': 9, 'loaded': True, 'loadedTime': 3558.3000000715256, 'positionName': 'RIGHT', 'positionCoords': [764.4, 255.5], 'bid': 6.7}]",19034.0,1669829252538,popsicles,veggieswithdip,6.71,6.7,-0.009999999999999787,veggieswithdip,1139.4000000953674,1143,1143.6000000238419,True,i,20677.900000095367,1643.9000000953674,1669829254182,1644,HRV,HRV_0008,2022-11-30 17:32:36
10,"[{'imgObject': {}, 'id': 'granola w milk', 'src': '/static/foodstim60/granola w milk.jpg', 'key': 'u', 'origWidth': 410, 'origHeight': 410, 'width': 410, 'height': 410, 'widthPercent': 0.45, 'rescaleHeight': False, 'trialN': 10, 'loaded': True, 'loadedTime': 3562.600000023842, 'positionName': 'LEFT', 'positionCoords': [295.6, 255], 'bid': 3.5700000000000003}, {'imgObject': {}, 'id': 'rigatoni', 'src': '/static/foodstim60/rigatoni.jpg', 'key': 'i', 'origWidth': 411, 'origHeight': 411, 'width': 411, 'height': 411, 'widthPercent': 0.45, 'rescaleHeight': False, 'trialN': 10, 'loaded': True, 'loadedTime': 3564.3000000715256, 'positionName': 'RIGHT', 'positionCoords': [764.4, 254.5], 'bid': 3.73}]",20678.400000095367,1669829254182,granola w milk,rigatoni,3.5700000000000003,3.73,0.1599999999999997,rigatoni,1547.0,1553,1552.5,True,i,22731.300000071526,2052.899999976158,1669829256235,2053,HRV,HRV_0008,2022-11-30 17:32:36
11,"[{'imgObject': {}, 'id': 'raisin bran w milk', 'src': '/static/foodstim60/raisin bran w milk.jpg', 'key': 'u', 'origWidth': 411, 'origHeight': 411, 'width': 411, 'height': 411, 'widthPercent': 0.45, 'rescaleHeight': False, 'trialN': 11, 'loaded': True, 'loadedTime': 3340.8000000715256, 'positionName': 'LEFT', 'positionCoords': [294.6, 254.5], 'bid': 1.82}, {'imgObject': {}, 'id': 'hashbrowns', 'src': '/static/foodstim60/hashbrowns.jpg', 'key': 'i', 'origWidth': 411, 'origHeight': 410, 'width': 411, 'height': 410, 'widthPercent': 0.45, 'rescaleHeight': False, 'trialN': 11, 'loaded': True, 'loadedTime': 3415.2000000476837, 'positionName': 'RIGHT', 'positionCoords': [764.4, 255], 'bid': 1.95}]",22731.600000023842,1669829256235,raisin bran w milk,hashbrowns,1.82,1.95,0.1299999999999999,hashbrowns,1302.6000000238419,1307,1307.0,True,i,24539.200000047684,1807.6000000238419,1669829258043,1808,HRV,HRV_0008,2022-11-30 17:32:36
12,"[{'imgObject': {}, 'id': 'omelette', 'src': '/static/foodstim60/omelette.jpg', 'key': 'u', 'origWidth': 410, 'origHeight': 409, 'width': 410, 'height': 409, 'widthPercent': 0.45, 'rescaleHeight': False, 'trialN': 12, 'loaded': True, 'loadedTime': 3566.100000023842, 'positionName': 'LEFT', 'positionCoords': [295.6, 255.5], 'bid': 8.72}, {'imgObject': {}, 'id': 'tacos', 'src': '/static/foodstim60/tacos.jpg', 'key': 'i', 'origWidth': 411, 'origHeight': 411, 'width': 411, 'height': 411, 'widthPercent': 0.45, 'rescaleHeight': False, 'trialN': 12, 'loaded': True, 'loadedTime': 3567, 'positionName': 'RIGHT', 'positionCoords': [764.4, 254.5], 'bid': 8.17}]",24539.5,1669829258043,omelette,tacos,8.72,8.17,-0.5500000000000007,tacos,1348.6000000238419,1353,1352.8000000715256,True,i,26392.700000047684,1853.2000000476837,1669829259896,1853,HRV,HRV_0008,2022-11-30 17:32:36
13,"[{'imgObject': {}, 'id': 'mashed potato', 'src': '/static/foodstim60/mashed potato.jpg', 'key': 'u', 'origWidth': 409, 'origHeight': 409, 'width': 409, 'height': 409, 'widthPercent': 0.45, 'rescaleHeight': False, 'trialN': 13, 'loaded': True, 'loadedTime': 3578.3000000715256, 'positionName': 'LEFT', 'positionCoords': [296.6, 255.5], 'bid': 4.38}, {'imgObject': {}, 'id': 'banana', 'src': '/static/foodstim60/banana.jpg', 'key': 'i', 'origWidth': 410, 'origHeight': 410, 'width': 410, 'height': 410, 'widthPercent': 0.45, 'rescaleHeight': False, 'trialN': 13, 'loaded': True, 'loadedTime': 3474, 'positionName': 'RIGHT', 'positionCoords': [764.4, 255], 'bid': 8.9}]",26393.100000023842,1669829259897,mashed potato,banana,4.38,8.9,4.5200000000000005,banana,1391.0,1395,1395.6000000238419,True,i,28289.0,1895.8999999761581,1669829261793,1896,HRV,HRV_0008,2022-11-30 17:32:36
14,"[{'imgObject': {}, 'id': 'avocado', 'src': '/static/foodstim60/avocado.jpg', 'key': 'u', 'origWidth': 409, 'origHeight': 409, 'width': 409, 'height': 409, 'widthPercent': 0.45, 'rescaleHeight': False, 'trialN': 14, 'loaded': True, 'loadedTime': 3593, 'positionName': 'LEFT', 'positionCoords': [296.6, 255.5], 'bid': 1.34}, {'imgObject': {}, 'id': 'eggsalad', 'src': '/static/foodstim60/eggsalad.jpg', 'key': 'i', 'origWidth': 410, 'origHeight': 409, 'width': 410, 'height': 409, 'widthPercent': 0.45, 'rescaleHeight': False, 'trialN': 14, 'loaded': True, 'loadedTime': 3593.2000000476837, 'positionName': 'RIGHT', 'positionCoords': [764.4, 255.5], 'bid': 7.72}]",28289.300000071526,1669829261793,avocado,eggsalad,1.34,7.72,6.38,eggsalad,1216.3999999761581,1219,1219.5,True,i,30009.100000023842,1719.7999999523163,1669829263513,1720,HRV,HRV_0008,2022-11-30 17:32:36
15,"[{'imgObject': {}, 'id': 'edamame', 'src': '/static/foodstim60/edamame.jpg', 'key': 'u', 'origWidth': 409, 'origHeight': 410, 'width': 409, 'height': 410, 'widthPercent': 0.45, 'rescaleHeight': False, 'trialN': 15, 'loaded': True, 'loadedTime': 3444.100000023842, 'positionName': 'LEFT', 'positionCoords': [296.6, 255], 'bid': 6.4}, {'imgObject': {}, 'id': 'yogurt no spoon', 'src': '/static/foodstim60/yogurt no spoon.jpg', 'key': 'i', 'origWidth': 411, 'origHeight': 410, 'width': 411, 'height': 410, 'widthPercent': 0.45, 'rescaleHeight': False, 'trialN': 15, 'loaded': True, 'loadedTime': 3596.3000000715256, 'positionName': 'RIGHT', 'positionCoords': [764.4, 255], 'bid': 6.44}]",30009.400000095367,1669829263513,edamame,yogurt no spoon,6.4,6.44,0.040000000000000036,yogurt no spoon,1869.5,1874,1873.6999999284744,True,i,32383.5,2374.0999999046326,1669829265887,2374,HRV,HRV_0008,2022-11-30 17:32:36
16,"[{'imgObject': {}, 'id': 'salad w chicken', 'src': '/static/foodstim60/salad w chicken.jpg', 'key': 'u', 'origWidth': 411, 'origHeight': 411, 'width': 411, 'height': 411, 'widthPercent': 0.45, 'rescaleHeight': False, 'trialN': 16, 'loaded': True, 'loadedTime': 3595.5, 'positionName': 'LEFT', 'positionCoords': [294.6, 254.5], 'bid': 6.33}, {'imgObject': {}, 'id': 'cherry tomato', 'src': '/static/foodstim60/cherry tomato.jpg', 'key': 'i', 'origWidth': 410, 'origHeight': 410, 'width': 410, 'height': 410, 'widthPercent': 0.45, 'rescaleHeight': False, 'trialN': 16, 'loaded': True, 'loadedTime': 3597.9000000953674, 'positionName': 'RIGHT', 'positionCoords': [764.4, 255], 'bid': 6.140000000000001}]",32383.800000071526,1669829265887,salad w chicken,cherry tomato,6.33,6.140000000000001,-0.1899999999999995,salad w chicken,1893.1000000238419,1899,1898.7999999523163,True,u,34783.200000047684,2399.399999976158,1669829268287,2400,HRV,HRV_0008,2022-11-30 17:32:36
17,"[{'imgObject': {}, 'id': 'omelette', 'src': '/static/foodstim60/omelette.jpg', 'key': 'u', 'origWidth': 410, 'origHeight': 409, 'width': 410, 'height': 409, 'widthPercent': 0.45, 'rescaleHeight': False, 'trialN': 17, 'loaded': True, 'loadedTime': 3564.9000000953674, 'positionName': 'LEFT', 'positionCoords': [295.6, 255.5], 'bid': 8.72}, {'imgObject': {}, 'id': 'seaweed', 'src': '/static/foodstim60/seaweed.jpg', 'key': 'i', 'origWidth': 410, 'origHeight': 410, 'width': 410, 'height': 410, 'widthPercent': 0.45, 'rescaleHeight': False, 'trialN': 17, 'loaded': True, 'loadedTime': 3599.8000000715256, 'positionName': 'RIGHT', 'positionCoords': [764.4, 255], 'bid': 8.67}]",34783.5,1669829268287,omelette,seaweed,8.72,8.67,-0.05000000000000071,omelette,1235.5,1240,1239.4000000953674,True,u,36523.300000071526,1739.8000000715256,1669829270027,1740,HRV,HRV_0008,2022-11-30 17:32:36
18,"[{'imgObject': {}, 'id': 'rigatoni', 'src': '/static/foodstim60/rigatoni.jpg', 'key': 'u', 'origWidth': 411, 'origHeight': 411, 'width': 411, 'height': 411, 'widthPercent': 0.45, 'rescaleHeight': False, 'trialN': 18, 'loaded': True, 'loadedTime': 3564.3000000715256, 'positionName': 'LEFT', 'positionCoords': [294.6, 254.5], 'bid': 3.73}, {'imgObject': {}, 'id': 'cocktailshrimp', 'src': '/static/foodstim60/cocktailshrimp.jpg', 'key': 'i', 'origWidth': 410, 'origHeight': 410, 'width': 410, 'height': 410, 'widthPercent': 0.45, 'rescaleHeight': False, 'trialN': 18, 'loaded': True, 'loadedTime': 3599.4000000953674, 'positionName': 'RIGHT', 'positionCoords': [764.4, 255], 'bid': 8.86}]",36523.60000002384,1669829270027,rigatoni,cocktailshrimp,3.73,8.86,5.129999999999999,cocktailshrimp,1267.3000000715256,1272,1271.6000000238419,True,i,38295.700000047684,1772.1000000238419,1669829271799,1772,HRV,HRV_0008,2022-11-30 17:32:36
19,"[{'imgObject': {}, 'id': 'tacos', 'src': '/static/foodstim60/tacos.jpg', 'key': 'u', 'origWidth': 411, 'origHeight': 411, 'width': 411, 'height': 411, 'widthPercent': 0.45, 'rescaleHeight': False, 'trialN': 19, 'loaded': True, 'loadedTime': 3567.100000023842, 'positionName': 'LEFT', 'positionCoords': [294.6, 254.5], 'bid': 8.17}, {'imgObject': {}, 'id': 'bagel and cc', 'src': '/static/foodstim60/bagel and cc.jpg', 'key': 'i', 'origWidth': 410, 'origHeight': 410, 'width': 410, 'height': 410, 'widthPercent': 0.45, 'rescaleHeight': False, 'trialN': 19, 'loaded': True, 'loadedTime': 3601.100000023842, 'positionName': 'RIGHT', 'positionCoords': [764.4, 255], 'bid': 9.02}]",38296.0,1669829271800,tacos,bagel and cc,8.17,9.02,0.8499999999999996,tacos,1255.0,1258,1258.5,True,u,40054.800000071526,1758.8000000715256,1669829273558,1758,HRV,HRV_0008,2022-11-30 17:32:36
20,"[{'imgObject': {}, 'id': 'chicken nuggets2', 'src': '/static/foodstim60/chicken nuggets2.jpg', 'key': 'u', 'origWidth': 410, 'origHeight': 409, 'width': 410, 'height': 409, 'widthPercent': 0.45, 'rescaleHeight': False, 'trialN': 20, 'loaded': True, 'loadedTime': 3603.100000023842, 'positionName': 'LEFT', 'positionCoords': [295.6, 255.5], 'bid': 4.75}, {'imgObject': {}, 'id': 'cantaloupe', 'src': '/static/foodstim60/cantaloupe.jpg', 'key': 'i', 'origWidth': 409, 'origHeight': 409, 'width': 409, 'height': 409, 'widthPercent': 0.45, 'rescaleHeight': False, 'trialN': 20, 'loaded': True, 'loadedTime': 3605.3000000715256, 'positionName': 'RIGHT', 'positionCoords': [764.4, 255.5], 'bid': 1.7}]",40055.10000002384,1669829273559,chicken nuggets2,cantaloupe,4.75,1.7,-3.05,chicken nuggets2,1296.7000000476837,1301,1301.0,True,u,41856.5,1801.3999999761581,1669829275360,1801,HRV,HRV_0008,2022-11-30 17:32:36
21,"[{'imgObject': {}, 'id': 'shreddedwheatwithmilk', 'src': '/static/foodstim60/shreddedwheatwithmilk.jpg', 'key': 'u', 'origWidth': 410, 'origHeight': 410, 'width': 410, 'height': 410, 'widthPercent': 0.45, 'rescaleHeight': False, 'trialN': 21, 'loaded': True, 'loadedTime': 3375.5, 'positionName': 'LEFT', 'positionCoords': [295.6, 255], 'bid': 3.38}, {'imgObject': {}, 'id': 'pear', 'src': '/static/foodstim60/pear.jpg', 'key': 'i', 'origWidth': 411, 'origHeight': 410, 'width': 411, 'height': 410, 'widthPercent': 0.45, 'rescaleHeight': False, 'trialN': 21, 'loaded': True, 'loadedTime': 3605.3000000715256, 'positionName': 'RIGHT', 'positionCoords': [764.4, 255], 'bid': 0.76}]",41856.800000071526,1669829275360,shreddedwheatwithmilk,pear,3.38,0.76,-2.62,pear,1898.1000000238419,1903,1903.1000000238419,True,i,44260.200000047684,2403.399999976158,1669829277764,2404,HRV,HRV_0008,2022-11-30 17:32:36
22,"[{'imgObject': {}, 'id': 'sushi w_condiments', 'src': '/static/foodstim60/sushi w_condiments.jpg', 'key': 'u', 'origWidth': 410, 'origHeight': 410, 'width': 410, 'height': 410, 'widthPercent': 0.45, 'rescaleHeight': False, 'trialN': 22, 'loaded': True, 'loadedTime': 3607.7000000476837, 'positionName': 'LEFT', 'positionCoords': [295.6, 255], 'bid': 9.87}, {'imgObject': {}, 'id': 'cocktailshrimp', 'src': '/static/foodstim60/cocktailshrimp.jpg', 'key': 'i', 'origWidth': 410, 'origHeight': 410, 'width': 410, 'height': 410, 'widthPercent': 0.45, 'rescaleHeight': False, 'trialN': 22, 'loaded': True, 'loadedTime': 3598.5, 'positionName': 'RIGHT', 'positionCoords': [764.4, 255], 'bid': 8.86}]",44260.5,1669829277764,sushi w_condiments,cocktailshrimp,9.87,8.86,-1.0099999999999998,sushi w_condiments,1196.2000000476837,1202,1201.9000000953674,True,u,45962.700000047684,1702.2000000476837,1669829279466,1702,HRV,HRV_0008,2022-11-30 17:32:36
23,"[{'imgObject': {}, 'id': 'Tribe humus pita', 'src': '/static/foodstim60/Tribe humus pita.jpg', 'key': 'u', 'origWidth': 411, 'origHeight': 411, 'width': 411, 'height': 411, 'widthPercent': 0.45, 'rescaleHeight': False, 'trialN': 23, 'loaded': True, 'loadedTime': 3430.3000000715256, 'positionName': 'LEFT', 'positionCoords': [294.6, 254.5], 'bid': 7.66}, {'imgObject': {}, 'id': 'steak', 'src': '/static/foodstim60/steak.jpg', 'key': 'i', 'origWidth': 410, 'origHeight': 410, 'width': 410, 'height': 410, 'widthPercent': 0.45, 'rescaleHeight': False, 'trialN': 23, 'loaded': True, 'loadedTime': 3610.7000000476837, 'positionName': 'RIGHT', 'positionCoords': [764.4, 255], 'bid': 7.48}]",45963.10000002384,1669829279467,Tribe humus pita,steak,7.66,7.48,-0.17999999999999972,steak,1630.6000000238419,1635,1635.2000000476837,True,i,48098.60000002384,2135.5,1669829281602,2135,HRV,HRV_0008,2022-11-30 17:32:36
24,"[{'imgObject': {}, 'id': 'popsicles', 'src': '/static/foodstim60/popsicles.jpg', 'key': 'u', 'origWidth': 410, 'origHeight': 410, 'width': 410, 'height': 410, 'widthPercent': 0.45, 'rescaleHeight': False, 'trialN': 24, 'loaded': True, 'loadedTime': 3711.2000000476837, 'positionName': 'LEFT', 'positionCoords': [295.6, 255], 'bid': 6.71}, {'imgObject': {}, 'id': 'cheerios', 'src': '/static/foodstim60/cheerios.jpg', 'key': 'i', 'origWidth': 409, 'origHeight': 410, 'width': 409, 'height': 410, 'widthPercent': 0.45, 'rescaleHeight': False, 'trialN': 24, 'loaded': True, 'loadedTime': 3355.600000023842, 'positionName': 'RIGHT', 'positionCoords': [764.4, 255], 'bid': 0.9}]",48098.90000009537,1669829281602,popsicles,cheerios,6.71,0.9,-5.81,popsicles,2221.5,2225,2224.899999976158,True,u,50824.200000047684,2725.2999999523163,1669829284328,2726,HRV,HRV_0008,2022-11-30 17:32:36
25,"[{'imgObject': {}, 'id': 'orange slices', 'src': '/static/foodstim60/orange slices.jpg', 'key': 'u', 'origWidth': 409, 'origHeight': 410, 'width': 409, 'height': 410, 'widthPercent': 0.45, 'rescaleHeight': False, 'trialN': 25, 'loaded': True, 'loadedTime': 3517.3000000715256, 'positionName': 'LEFT', 'positionCoords': [296.6, 255], 'bid': 2.87}, {'imgObject': {}, 'id': 'salmon', 'src': '/static/foodstim60/salmon.jpg', 'key': 'i', 'origWidth': 410, 'origHeight': 409, 'width': 410, 'height': 409, 'widthPercent': 0.45, 'rescaleHeight': False, 'trialN': 25, 'loaded': True, 'loadedTime': 3611.3000000715256, 'positionName': 'RIGHT', 'positionCoords': [764.4, 255.5], 'bid': 8.53}]",50824.40000009537,1669829284328,orange slices,salmon,2.87,8.53,5.659999999999999,salmon,1229.2999999523163,1234,1233.7999999523163,True,i,52558.700000047684,1734.2999999523163,1669829286062,1734,HRV,HRV_0008,2022-11-30 17:32:36
26,"[{'imgObject': {}, 'id': 'strawberries', 'src': '/static/foodstim60/strawberries.jpg', 'key': 'u', 'origWidth': 410, 'origHeight': 410, 'width': 410, 'height': 410, 'widthPercent': 0.45, 'rescaleHeight': False, 'trialN': 26, 'loaded': True, 'loadedTime': 3460.100000023842, 'positionName': 'LEFT', 'positionCoords': [295.6, 255], 'bid': 3.69}, {'imgObject': {}, 'id': 'orange slices', 'src': '/static/foodstim60/orange slices.jpg', 'key': 'i', 'origWidth': 409, 'origHeight': 410, 'width': 409, 'height': 410, 'widthPercent': 0.45, 'rescaleHeight': False, 'trialN': 26, 'loaded': True, 'loadedTime': 3517.4000000953674, 'positionName': 'RIGHT', 'positionCoords': [764.4, 255], 'bid': 2.87}]",52558.90000009537,1669829286063,strawberries,orange slices,3.69,2.87,-0.8199999999999998,orange slices,1801.5,1804,1804.1999999284744,True,i,54863.200000047684,2304.2999999523163,1669829288367,2304,HRV,HRV_0008,2022-11-30 17:32:36
27,"[{'imgObject': {}, 'id': 'pear', 'src': '/static/foodstim60/pear.jpg', 'key': 'u', 'origWidth': 411, 'origHeight': 410, 'width': 411, 'height': 410, 'widthPercent': 0.45, 'rescaleHeight': False, 'trialN': 27, 'loaded': True, 'loadedTime': 3607, 'positionName': 'LEFT', 'positionCoords': [294.6, 255], 'bid': 0.76}, {'imgObject': {}, 'id': 'veggieswithdip', 'src': '/static/foodstim60/veggieswithdip.jpg', 'key': 'i', 'origWidth': 409, 'origHeight': 409, 'width': 409, 'height': 409, 'widthPercent': 0.45, 'rescaleHeight': False, 'trialN': 27, 'loaded': True, 'loadedTime': 3544.5, 'positionName': 'RIGHT', 'positionCoords': [764.4, 255.5], 'bid': 6.7}]",54863.60000002384,1669829288367,pear,veggieswithdip,0.76,6.7,5.94,veggieswithdip,1365.8999999761581,1372,1371.3999999761581,True,i,56735.60000002384,1872.0,1669829290239,1872,HRV,HRV_0008,2022-11-30 17:32:36
28,"[{'imgObject': {}, 'id': 'seaweed', 'src': '/static/foodstim60/seaweed.jpg', 'key': 'u', 'origWidth': 410, 'origHeight': 410, 'width': 410, 'height': 410, 'widthPercent': 0.45, 'rescaleHeight': False, 'trialN': 28, 'loaded': True, 'loadedTime': 3600.5, 'positionName': 'LEFT', 'positionCoords': [295.6, 255], 'bid': 8.67}, {'imgObject': {}, 'id': 'raspberries', 'src': '/static/foodstim60/raspberries.jpg', 'key': 'i', 'origWidth': 411, 'origHeight': 411, 'width': 411, 'height': 411, 'widthPercent': 0.45, 'rescaleHeight': False, 'trialN': 28, 'loaded': True, 'loadedTime': 3627.4000000953674, 'positionName': 'RIGHT', 'positionCoords': [764.4, 254.5], 'bid': 3.53}]",56735.800000071526,1669829290239,seaweed,raspberries,8.67,3.53,-5.140000000000001,seaweed,1341.7999999523163,1346,1345.7999999523163,True,u,58581.90000009537,1846.1000000238419,1669829292085,1846,HRV,HRV_0008,2022-11-30 17:32:36
29,"[{'imgObject': {}, 'id': 'kiwi', 'src': '/static/foodstim60/kiwi.jpg', 'key': 'u', 'origWidth': 410, 'origHeight': 410, 'width': 410, 'height': 410, 'widthPercent': 0.45, 'rescaleHeight': False, 'trialN': 29, 'loaded': True, 'loadedTime': 3502.4000000953674, 'positionName': 'LEFT', 'positionCoords': [295.6, 255], 'bid': 1.28}, {'imgObject': {}, 'id': 'steak', 'src': '/static/foodstim60/steak.jpg', 'key': 'i', 'origWidth': 410, 'origHeight': 410, 'width': 410, 'height': 410, 'widthPercent': 0.45, 'rescaleHeight': False, 'trialN': 29, 'loaded': True, 'loadedTime': 3610.7000000476837, 'positionName': 'RIGHT', 'positionCoords': [764.4, 255], 'bid': 7.48}]",58582.10000002384,1669829292086,kiwi,steak,1.28,7.48,6.2,steak,1139.2000000476837,1143,1143.7000000476837,True,i,60226.0,1643.8999999761581,1669829293730,1644,HRV,HRV_0008,2022-11-30 17:32:36
30,"[{'imgObject': {}, 'id': 'strawberries', 'src': '/static/foodstim60/strawberries.jpg', 'key': 'u', 'origWidth': 410, 'origHeight': 410, 'width': 410, 'height': 410, 'widthPercent': 0.45, 'rescaleHeight': False, 'trialN': 30, 'loaded': True, 'loadedTime': 3460.100000023842, 'positionName': 'LEFT', 'positionCoords': [295.6, 255], 'bid': 3.69}, {'imgObject': {}, 'id': 'turkeysandwich', 'src': '/static/foodstim60/turkeysandwich.jpg', 'key': 'i', 'origWidth': 409, 'origHeight': 409, 'width': 409, 'height': 409, 'widthPercent': 0.45, 'rescaleHeight': False, 'trialN': 30, 'loaded': True, 'loadedTime': 3517.5, 'positionName': 'RIGHT', 'positionCoords': [764.4, 255.5], 'bid': 8.85}]",60226.300000071526,1669829293730,strawberries,turkeysandwich,3.69,8.85,5.16,turkeysandwich,992.0,996,996.1999999284744,True,i,61722.800000071526,1496.5,1669829295226,1496,HRV,HRV_0008,2022-11-30 17:32:36
31,"[{'imgObject': {}, 'id': 'froot loops w milk', 'src': '/static/foodstim60/froot loops w milk.jpg', 'key': 'u', 'origWidth': 410, 'origHeight': 410, 'width': 410, 'height': 410, 'widthPercent': 0.45, 'rescaleHeight': False, 'trialN': 31, 'loaded': True, 'loadedTime': 3629.8000000715256, 'positionName': 'LEFT', 'positionCoords': [295.6, 255], 'bid': 0.49}, {'imgObject': {}, 'id': 'kiwi', 'src': '/static/foodstim60/kiwi.jpg', 'key': 'i', 'origWidth': 410, 'origHeight': 410, 'width': 410, 'height': 410, 'widthPercent': 0.45, 'rescaleHeight': False, 'trialN': 31, 'loaded': True, 'loadedTime': 3502.3000000715256, 'positionName': 'RIGHT', 'positionCoords': [764.4, 255], 'bid': 1.28}]",61723.200000047684,1669829295227,froot loops w milk,kiwi,0.49,1.28,0.79,kiwi,1484.8999999761581,1489,1489.3999999761581,True,i,63713.300000071526,1990.1000000238419,1669829297217,1990,HRV,HRV_0008,2022-11-30 17:32:36
32,"[{'imgObject': {}, 'id': 'cherry tomato', 'src': '/static/foodstim60/cherry tomato.jpg', 'key': 'u', 'origWidth': 410, 'origHeight': 410, 'width': 410, 'height': 410, 'widthPercent': 0.45, 'rescaleHeight': False, 'trialN': 32, 'loaded': True, 'loadedTime': 3597.4000000953674, 'positionName': 'LEFT', 'positionCoords': [295.6, 255], 'bid': 6.140000000000001}, {'imgObject': {}, 'id': 'mashed potato', 'src': '/static/foodstim60/mashed potato.jpg', 'key': 'i', 'origWidth': 409, 'origHeight': 409, 'width': 409, 'height': 409, 'widthPercent': 0.45, 'rescaleHeight': False, 'trialN': 32, 'loaded': True, 'loadedTime': 3578.4000000953674, 'positionName': 'RIGHT', 'positionCoords': [764.4, 255.5], 'bid': 4.38}]",63713.60000002384,1669829297217,cherry tomato,mashed potato,6.140000000000001,4.38,-1.7600000000000007,cherry tomato,1278.5,1282,1282.1000000238419,True,u,65496.10000002384,1782.5,1669829299000,1783,HRV,HRV_0008,2022-11-30 17:32:36
33,"[{'imgObject': {}, 'id': 'eggsalad', 'src': '/static/foodstim60/eggsalad.jpg', 'key': 'u', 'origWidth': 410, 'origHeight': 409, 'width': 410, 'height': 409, 'widthPercent': 0.45, 'rescaleHeight': False, 'trialN': 33, 'loaded': True, 'loadedTime': 3593.600000023842, 'positionName': 'LEFT', 'positionCoords': [295.6, 255.5], 'bid': 7.72}, {'imgObject': {}, 'id': 'grilled chicken strips', 'src': '/static/foodstim60/grilled chicken strips.jpg', 'key': 'i', 'origWidth': 410, 'origHeight': 411, 'width': 410, 'height': 411, 'widthPercent': 0.45, 'rescaleHeight': False, 'trialN': 33, 'loaded': True, 'loadedTime': 3630.4000000953674, 'positionName': 'RIGHT', 'positionCoords': [764.4, 254.5], 'bid': 8.44}]",65496.300000071526,1669829299000,eggsalad,grilled chicken strips,7.72,8.44,0.7199999999999998,grilled chicken strips,1329.5,1333,1333.3999999761581,True,i,67330.30000007153,1834.0,1669829300834,1834,HRV,HRV_0008,2022-11-30 17:32:36
34,"[{'imgObject': {}, 'id': 'rigatoni and sauce', 'src': '/static/foodstim60/rigatoni and sauce.jpg', 'key': 'u', 'origWidth': 410, 'origHeight': 411, 'width': 410, 'height': 411, 'widthPercent': 0.45, 'rescaleHeight': False, 'trialN': 34, 'loaded': True, 'loadedTime': 3531.5, 'positionName': 'LEFT', 'positionCoords': [295.6, 254.5], 'bid': 8.23}, {'imgObject': {}, 'id': 'hotdog w must', 'src': '/static/foodstim60/hotdog w must.jpg', 'key': 'i', 'origWidth': 409, 'origHeight': 409, 'width': 409, 'height': 409, 'widthPercent': 0.45, 'rescaleHeight': False, 'trialN': 34, 'loaded': True, 'loadedTime': 3649.600000023842, 'positionName': 'RIGHT', 'positionCoords': [764.4, 255.5], 'bid': 8.38}]",67330.60000002384,1669829300834,rigatoni and sauce,hotdog w must,8.23,8.38,0.15000000000000036,rigatoni and sauce,925.7000000476837,931,930.5,True,u,68761.30000007153,1430.7000000476837,1669829302265,1431,HRV,HRV_0008,2022-11-30 17:32:36
35,"[{'imgObject': {}, 'id': 'Grapes', 'src': '/static/foodstim60/Grapes.jpg', 'key': 'u', 'origWidth': 411, 'origHeight': 411, 'width': 411, 'height': 411, 'widthPercent': 0.45, 'rescaleHeight': False, 'trialN': 35, 'loaded': True, 'loadedTime': 3650.8000000715256, 'positionName': 'LEFT', 'positionCoords': [294.6, 254.5], 'bid': 2.34}, {'imgObject': {}, 'id': 'froot loops w milk', 'src': '/static/foodstim60/froot loops w milk.jpg', 'key': 'i', 'origWidth': 410, 'origHeight': 410, 'width': 410, 'height': 410, 'widthPercent': 0.45, 'rescaleHeight': False, 'trialN': 35, 'loaded': True, 'loadedTime': 3629.8000000715256, 'positionName': 'RIGHT', 'positionCoords': [764.4, 255], 'bid': 0.49}]",68761.70000004768,1669829302265,Grapes,froot loops w milk,2.34,0.49,-1.8499999999999999,Grapes,1279.3999999761581,1283,1283.0,True,u,70544.90000009537,1783.2000000476837,1669829304048,1783,HRV,HRV_0008,2022-11-30 17:32:36
36,"[{'imgObject': {}, 'id': 'luckycharms', 'src': '/static/foodstim60/luckycharms.jpg', 'key': 'u', 'origWidth': 410, 'origHeight': 409, 'width': 410, 'height': 409, 'widthPercent': 0.45, 'rescaleHeight': False, 'trialN': 36, 'loaded': True, 'loadedTime': 3651.4000000953674, 'positionName': 'LEFT', 'positionCoords': [295.6, 255.5], 'bid': 0.51}, {'imgObject': {}, 'id': 'froot loops w milk', 'src': '/static/foodstim60/froot loops w milk.jpg', 'key': 'i', 'origWidth': 410, 'origHeight': 410, 'width': 410, 'height': 410, 'widthPercent': 0.45, 'rescaleHeight': False, 'trialN': 36, 'loaded': True, 'loadedTime': 3629.8000000715256, 'positionName': 'RIGHT', 'positionCoords': [764.4, 255], 'bid': 0.49}]",70545.10000002384,1669829304049,luckycharms,froot loops w milk,0.51,0.49,-0.020000000000000018,froot loops w milk,1965.8000000715256,1969,1969.6000000238419,True,i,73015.40000009537,2470.3000000715256,1669829306519,2470,HRV,HRV_0008,2022-11-30 17:32:36
37,"[{'imgObject': {}, 'id': 'Tribe humus pita', 'src': '/static/foodstim60/Tribe humus pita.jpg', 'key': 'u', 'origWidth': 411, 'origHeight': 411, 'width': 411, 'height': 411, 'widthPercent': 0.45, 'rescaleHeight': False, 'trialN': 37, 'loaded': True, 'loadedTime': 3430.3000000715256, 'positionName': 'LEFT', 'positionCoords': [294.6, 254.5], 'bid': 7.66}, {'imgObject': {}, 'id': 'mango', 'src': '/static/foodstim60/mango.jpg', 'key': 'i', 'origWidth': 411, 'origHeight': 411, 'width': 411, 'height': 411, 'widthPercent': 0.45, 'rescaleHeight': False, 'trialN': 37, 'loaded': True, 'loadedTime': 3664.3000000715256, 'positionName': 'RIGHT', 'positionCoords': [764.4, 254.5], 'bid': 1.31}]",73015.60000002384,1669829306519,Tribe humus pita,mango,7.66,1.31,-6.35,Tribe humus pita,1651.3999999761581,1656,1655.8000000715256,True,u,75172.10000002384,2156.5,1669829308676,2157,HRV,HRV_0008,2022-11-30 17:32:36
38,"[{'imgObject': {}, 'id': 'turkeysandwich', 'src': '/static/foodstim60/turkeysandwich.jpg', 'key': 'u', 'origWidth': 409, 'origHeight': 409, 'width': 409, 'height': 409, 'widthPercent': 0.45, 'rescaleHeight': False, 'trialN': 38, 'loaded': True, 'loadedTime': 3530.600000023842, 'positionName': 'LEFT', 'positionCoords': [296.6, 255.5], 'bid': 8.85}, {'imgObject': {}, 'id': 'banana', 'src': '/static/foodstim60/banana.jpg', 'key': 'i', 'origWidth': 410, 'origHeight': 410, 'width': 410, 'height': 410, 'widthPercent': 0.45, 'rescaleHeight': False, 'trialN': 38, 'loaded': True, 'loadedTime': 3474, 'positionName': 'RIGHT', 'positionCoords': [764.4, 255], 'bid': 8.9}]",75172.40000009537,1669829308676,turkeysandwich,banana,8.85,8.9,0.05000000000000071,turkeysandwich,870.6999999284744,875,875.2999999523163,True,u,76548.0,1375.5999999046326,1669829310052,1376,HRV,HRV_0008,2022-11-30 17:32:36
39,"[{'imgObject': {}, 'id': 'granola w milk', 'src': '/static/foodstim60/granola w milk.jpg', 'key': 'u', 'origWidth': 410, 'origHeight': 410, 'width': 410, 'height': 410, 'widthPercent': 0.45, 'rescaleHeight': False, 'trialN': 39, 'loaded': True, 'loadedTime': 3562.9000000953674, 'positionName': 'LEFT', 'positionCoords': [295.6, 255], 'bid': 3.5700000000000003}, {'imgObject': {}, 'id': 'kiwi', 'src': '/static/foodstim60/kiwi.jpg', 'key': 'i', 'origWidth': 410, 'origHeight': 410, 'width': 410, 'height': 410, 'widthPercent': 0.45, 'rescaleHeight': False, 'trialN': 39, 'loaded': True, 'loadedTime': 3502.4000000953674, 'positionName': 'RIGHT', 'positionCoords': [764.4, 255], 'bid': 1.28}]",76548.30000007153,1669829310052,granola w milk,kiwi,3.5700000000000003,1.28,-2.29,kiwi,1402.6999999284744,1408,1408.3999999761581,True,i,78457.0,1908.6999999284744,1669829311961,1909,HRV,HRV_0008,2022-11-30 17:32:36
40,"[{'imgObject': {}, 'id': 'avocado', 'src': '/static/foodstim60/avocado.jpg', 'key': 'u', 'origWidth': 409, 'origHeight': 409, 'width': 409, 'height': 409, 'widthPercent': 0.45, 'rescaleHeight': False, 'trialN': 40, 'loaded': True, 'loadedTime': 3593, 'positionName': 'LEFT', 'positionCoords': [296.6, 255.5], 'bid': 1.34}, {'imgObject': {}, 'id': 'apple slices', 'src': '/static/foodstim60/apple slices.jpg', 'key': 'i', 'origWidth': 409, 'origHeight': 410, 'width': 409, 'height': 410, 'widthPercent': 0.45, 'rescaleHeight': False, 'trialN': 40, 'loaded': True, 'loadedTime': 3677.5, 'positionName': 'RIGHT', 'positionCoords': [764.4, 255], 'bid': 0.6}]",78457.10000002384,1669829311961,avocado,apple slices,1.34,0.6,-0.7400000000000001,apple slices,1904.5,1908,1908.3999999761581,True,i,80865.80000007153,2408.7000000476837,1669829314369,2408,HRV,HRV_0008,2022-11-30 17:32:36
41,"[{'imgObject': {}, 'id': 'sushi w_condiments', 'src': '/static/foodstim60/sushi w_condiments.jpg', 'key': 'u', 'origWidth': 410, 'origHeight': 410, 'width': 410, 'height': 410, 'widthPercent': 0.45, 'rescaleHeight': False, 'trialN': 41, 'loaded': True, 'loadedTime': 3607, 'positionName': 'LEFT', 'positionCoords': [295.6, 255], 'bid': 9.87}, {'imgObject': {}, 'id': 'eggs', 'src': '/static/foodstim60/eggs.jpg', 'key': 'i', 'origWidth': 409, 'origHeight': 409, 'width': 409, 'height': 409, 'widthPercent': 0.45, 'rescaleHeight': False, 'trialN': 41, 'loaded': True, 'loadedTime': 3415.8000000715256, 'positionName': 'RIGHT', 'positionCoords': [764.4, 255.5], 'bid': 8.41}]",80866.10000002384,1669829314370,sushi w_condiments,eggs,9.87,8.41,-1.459999999999999,sushi w_condiments,1083.8999999761581,1088,1088.5,True,u,82454.80000007153,1588.7000000476837,1669829315958,1588,HRV,HRV_0008,2022-11-30 17:32:36
42,"[{'imgObject': {}, 'id': 'roastedpotatoes', 'src': '/static/foodstim60/roastedpotatoes.jpg', 'key': 'u', 'origWidth': 409, 'origHeight': 410, 'width': 409, 'height': 410, 'widthPercent': 0.45, 'rescaleHeight': False, 'trialN': 42, 'loaded': True, 'loadedTime': 3678.100000023842, 'positionName': 'LEFT', 'positionCoords': [296.6, 255], 'bid': 7.61}, {'imgObject': {}, 'id': 'turkeysandwich', 'src': '/static/foodstim60/turkeysandwich.jpg', 'key': 'i', 'origWidth': 409, 'origHeight': 409, 'width': 409, 'height': 409, 'widthPercent': 0.45, 'rescaleHeight': False, 'trialN': 42, 'loaded': True, 'loadedTime': 3530.5, 'positionName': 'RIGHT', 'positionCoords': [764.4, 255.5], 'bid': 8.85}]",82455.10000002384,1669829315959,roastedpotatoes,turkeysandwich,7.61,8.85,1.2399999999999993,turkeysandwich,1675.8000000715256,1680,1680.3999999761581,True,i,84635.80000007153,2180.7000000476837,1669829318139,2180,HRV,HRV_0008,2022-11-30 17:32:36
43,"[{'imgObject': {}, 'id': 'baked potato', 'src': '/static/foodstim60/baked potato.jpg', 'key': 'u', 'origWidth': 409, 'origHeight': 410, 'width': 409, 'height': 410, 'widthPercent': 0.45, 'rescaleHeight': False, 'trialN': 43, 'loaded': True, 'loadedTime': 3678.600000023842, 'positionName': 'LEFT', 'positionCoords': [296.6, 255], 'bid': 5.91}, {'imgObject': {}, 'id': 'cherry tomato', 'src': '/static/foodstim60/cherry tomato.jpg', 'key': 'i', 'origWidth': 410, 'origHeight': 410, 'width': 410, 'height': 410, 'widthPercent': 0.45, 'rescaleHeight': False, 'trialN': 43, 'loaded': True, 'loadedTime': 3597.4000000953674, 'positionName': 'RIGHT', 'positionCoords': [764.4, 255], 'bid': 6.140000000000001}]",84636.0,1669829318140,baked potato,cherry tomato,5.91,6.140000000000001,0.23000000000000043,cherry tomato,2128.9000000953674,2133,2133.5,True,i,87269.70000004768,2633.7000000476837,1669829320773,2633,HRV,HRV_0008,2022-11-30 17:32:36
44,"[{'imgObject': {}, 'id': 'froot loops w milk', 'src': '/static/foodstim60/froot loops w milk.jpg', 'key': 'u', 'origWidth': 410, 'origHeight': 410, 'width': 410, 'height': 410, 'widthPercent': 0.45, 'rescaleHeight': False, 'trialN': 44, 'loaded': True, 'loadedTime': 3629.7000000476837, 'positionName': 'LEFT', 'positionCoords': [295.6, 255], 'bid': 0.49}, {'imgObject': {}, 'id': 'cherry tomato', 'src': '/static/foodstim60/cherry tomato.jpg', 'key': 'i', 'origWidth': 410, 'origHeight': 410, 'width': 410, 'height': 410, 'widthPercent': 0.45, 'rescaleHeight': False, 'trialN': 44, 'loaded': True, 'loadedTime': 3597.9000000953674, 'positionName': 'RIGHT', 'positionCoords': [764.4, 255], 'bid': 6.140000000000001}]",87270.0,1669829320774,froot loops w milk,cherry tomato,0.49,6.140000000000001,5.65,cherry tomato,1381.7000000476837,1387,1387.1000000238419,True,i,89157.40000009537,1887.4000000953674,1669829322661,1887,HRV,HRV_0008,2022-11-30 17:32:36
45,"[{'imgObject': {}, 'id': 'lox', 'src': '/static/foodstim60/lox.jpg', 'key': 'u', 'origWidth': 410, 'origHeight': 411, 'width': 410, 'height': 411, 'widthPercent': 0.45, 'rescaleHeight': False, 'trialN': 45, 'loaded': True, 'loadedTime': 3679.100000023842, 'positionName': 'LEFT', 'positionCoords': [295.6, 254.5], 'bid': 8.11}, {'imgObject': {}, 'id': 'fruitsalad', 'src': '/static/foodstim60/fruitsalad.jpg', 'key': 'i', 'origWidth': 410, 'origHeight': 410, 'width': 410, 'height': 410, 'widthPercent': 0.45, 'rescaleHeight': False, 'trialN': 45, 'loaded': True, 'loadedTime': 3679.3000000715256, 'positionName': 'RIGHT', 'positionCoords': [764.4, 255], 'bid': 1.65}]",89157.70000004768,1669829322661,lox,fruitsalad,8.11,1.65,-6.459999999999999,lox,858.0,863,862.3999999761581,True,u,90521.20000004768,1363.5,1669829324025,1364,HRV,HRV_0008,2022-11-30 17:32:36
46,"[{'imgObject': {}, 'id': 'olives', 'src': '/static/foodstim60/olives.jpg', 'key': 'u', 'origWidth': 410, 'origHeight': 410, 'width': 410, 'height': 410, 'widthPercent': 0.45, 'rescaleHeight': False, 'trialN': 46, 'loaded': True, 'loadedTime': 3680.2000000476837, 'positionName': 'LEFT', 'positionCoords': [295.6, 255], 'bid': 0.5700000000000001}, {'imgObject': {}, 'id': 'apple slices', 'src': '/static/foodstim60/apple slices.jpg', 'key': 'i', 'origWidth': 409, 'origHeight': 410, 'width': 409, 'height': 410, 'widthPercent': 0.45, 'rescaleHeight': False, 'trialN': 46, 'loaded': True, 'loadedTime': 3664.600000023842, 'positionName': 'RIGHT', 'positionCoords': [764.4, 255], 'bid': 0.6}]",90521.30000007153,1669829324025,olives,apple slices,0.5700000000000001,0.6,0.029999999999999916,olives,2043.5,2048,2048.399999976158,True,u,93070.0,2548.6999999284744,1669829326574,2549,HRV,HRV_0008,2022-11-30 17:32:36
47,"[{'imgObject': {}, 'id': 'olives', 'src': '/static/foodstim60/olives.jpg', 'key': 'u', 'origWidth': 410, 'origHeight': 410, 'width': 410, 'height': 410, 'widthPercent': 0.45, 'rescaleHeight': False, 'trialN': 47, 'loaded': True, 'loadedTime': 3680.2000000476837, 'positionName': 'LEFT', 'positionCoords': [295.6, 255], 'bid': 0.5700000000000001}, {'imgObject': {}, 'id': 'blackbeanswithrice', 'src': '/static/foodstim60/blackbeanswithrice.jpg', 'key': 'i', 'origWidth': 410, 'origHeight': 410, 'width': 410, 'height': 410, 'widthPercent': 0.45, 'rescaleHeight': False, 'trialN': 47, 'loaded': True, 'loadedTime': 3695.2000000476837, 'positionName': 'RIGHT', 'positionCoords': [764.4, 255], 'bid': 3.1}]",93070.20000004768,1669829326574,olives,blackbeanswithrice,0.5700000000000001,3.1,2.5300000000000002,blackbeanswithrice,1088.3999999761581,1093,1092.8999999761581,True,i,94663.40000009537,1593.2000000476837,1669829328167,1593,HRV,HRV_0008,2022-11-30 17:32:36
48,"[{'imgObject': {}, 'id': 'avocado', 'src': '/static/foodstim60/avocado.jpg', 'key': 'u', 'origWidth': 409, 'origHeight': 409, 'width': 409, 'height': 409, 'widthPercent': 0.45, 'rescaleHeight': False, 'trialN': 48, 'loaded': True, 'loadedTime': 3592.9000000953674, 'positionName': 'LEFT', 'positionCoords': [296.6, 255.5], 'bid': 1.34}, {'imgObject': {}, 'id': 'mashed potato', 'src': '/static/foodstim60/mashed potato.jpg', 'key': 'i', 'origWidth': 409, 'origHeight': 409, 'width': 409, 'height': 409, 'widthPercent': 0.45, 'rescaleHeight': False, 'trialN': 48, 'loaded': True, 'loadedTime': 3578.5, 'positionName': 'RIGHT', 'positionCoords': [764.4, 255.5], 'bid': 4.38}]",94663.60000002384,1669829328167,avocado,mashed potato,1.34,4.38,3.04,mashed potato,1653.0,1658,1657.6000000238419,True,i,96821.5,2157.899999976158,1669829330325,2158,HRV,HRV_0008,2022-11-30 17:32:36
49,"[{'imgObject': {}, 'id': 'eggs', 'src': '/static/foodstim60/eggs.jpg', 'key': 'u', 'origWidth': 409, 'origHeight': 409, 'width': 409, 'height': 409, 'widthPercent': 0.45, 'rescaleHeight': False, 'trialN': 49, 'loaded': True, 'loadedTime': 3415.3000000715256, 'positionName': 'LEFT', 'positionCoords': [296.6, 255.5], 'bid': 8.41}, {'imgObject': {}, 'id': 'blueberries', 'src': '/static/foodstim60/blueberries.jpg', 'key': 'i', 'origWidth': 411, 'origHeight': 411, 'width': 411, 'height': 411, 'widthPercent': 0.45, 'rescaleHeight': False, 'trialN': 49, 'loaded': True, 'loadedTime': 3365.9000000953674, 'positionName': 'RIGHT', 'positionCoords': [764.4, 254.5], 'bid': 2.26}]",96821.80000007153,1669829330325,eggs,blueberries,8.41,2.26,-6.15,eggs,1027.7999999523163,1033,1032.3999999761581,True,u,98354.60000002384,1532.7999999523163,1669829331858,1533,HRV,HRV_0008,2022-11-30 17:32:36
50,"[{'imgObject': {}, 'id': 'cherry tomato', 'src': '/static/foodstim60/cherry tomato.jpg', 'key': 'u', 'origWidth': 410, 'origHeight': 410, 'width': 410, 'height': 410, 'widthPercent': 0.45, 'rescaleHeight': False, 'trialN': 50, 'loaded': True, 'loadedTime': 3597.5, 'positionName': 'LEFT', 'positionCoords': [295.6, 255], 'bid': 6.140000000000001}, {'imgObject': {}, 'id': 'raspberries', 'src': '/static/foodstim60/raspberries.jpg', 'key': 'i', 'origWidth': 411, 'origHeight': 411, 'width': 411, 'height': 411, 'widthPercent': 0.45, 'rescaleHeight': False, 'trialN': 50, 'loaded': True, 'loadedTime': 3628.3000000715256, 'positionName': 'RIGHT', 'positionCoords': [764.4, 254.5], 'bid': 3.53}]",98354.80000007153,1669829331858,cherry tomato,raspberries,6.140000000000001,3.53,-2.6100000000000008,cherry tomato,996.6999999284744,1003,1002.5,True,u,99857.60000002384,1502.7999999523163,1669829333361,1503,HRV,HRV_0008,2022-11-30 17:32:36
51,"[{'imgObject': {}, 'id': 'eggs', 'src': '/static/foodstim60/eggs.jpg', 'key': 'u', 'origWidth': 409, 'origHeight': 409, 'width': 409, 'height': 409, 'widthPercent': 0.45, 'rescaleHeight': False, 'trialN': 51, 'loaded': True, 'loadedTime': 3415.8000000715256, 'positionName': 'LEFT', 'positionCoords': [296.6, 255.5], 'bid': 8.41}, {'imgObject': {}, 'id': 'grilled chicken strips', 'src': '/static/foodstim60/grilled chicken strips.jpg', 'key': 'i', 'origWidth': 410, 'origHeight': 411, 'width': 410, 'height': 411, 'widthPercent': 0.45, 'rescaleHeight': False, 'trialN': 51, 'loaded': True, 'loadedTime': 3630.4000000953674, 'positionName': 'RIGHT', 'positionCoords': [764.4, 254.5], 'bid': 8.44}]",99857.90000009537,1669829333361,eggs,grilled chicken strips,8.41,8.44,0.02999999999999936,eggs,804.5999999046326,810,809.1999999284744,True,u,101167.40000009537,1309.5,1669829334671,1310,HRV,HRV_0008,2022-11-30 17:32:36
52,"[{'imgObject': {}, 'id': 'raspberries', 'src': '/static/foodstim60/raspberries.jpg', 'key': 'u', 'origWidth': 411, 'origHeight': 411, 'width': 411, 'height': 411, 'widthPercent': 0.45, 'rescaleHeight': False, 'trialN': 52, 'loaded': True, 'loadedTime': 3628.4000000953674, 'positionName': 'LEFT', 'positionCoords': [294.6, 254.5], 'bid': 3.53}, {'imgObject': {}, 'id': 'granola w milk', 'src': '/static/foodstim60/granola w milk.jpg', 'key': 'i', 'origWidth': 410, 'origHeight': 410, 'width': 410, 'height': 410, 'widthPercent': 0.45, 'rescaleHeight': False, 'trialN': 52, 'loaded': True, 'loadedTime': 3562.2000000476837, 'positionName': 'RIGHT', 'positionCoords': [764.4, 255], 'bid': 3.5700000000000003}]",101167.60000002384,1669829334671,raspberries,granola w milk,3.53,3.5700000000000003,0.04000000000000048,granola w milk,2735.7000000476837,2740,2740.100000023842,True,i,104408.20000004768,3240.600000023842,1669829337912,3241,HRV,HRV_0008,2022-11-30 17:32:36
53,"[{'imgObject': {}, 'id': 'luckycharms', 'src': '/static/foodstim60/luckycharms.jpg', 'key': 'u', 'origWidth': 410, 'origHeight': 409, 'width': 410, 'height': 409, 'widthPercent': 0.45, 'rescaleHeight': False, 'trialN': 53, 'loaded': True, 'loadedTime': 3651.4000000953674, 'positionName': 'LEFT', 'positionCoords': [295.6, 255.5], 'bid': 0.51}, {'imgObject': {}, 'id': 'apple slices', 'src': '/static/foodstim60/apple slices.jpg', 'key': 'i', 'origWidth': 409, 'origHeight': 410, 'width': 409, 'height': 410, 'widthPercent': 0.45, 'rescaleHeight': False, 'trialN': 53, 'loaded': True, 'loadedTime': 3677.4000000953674, 'positionName': 'RIGHT', 'positionCoords': [764.4, 255], 'bid': 0.6}]",104408.40000009537,1669829337912,luckycharms,apple slices,0.51,0.6,0.08999999999999997,apple slices,1436.0999999046326,1441,1440.6999999284744,True,i,106349.40000009537,1941.0,1669829339853,1941,HRV,HRV_0008,2022-11-30 17:32:36
54,"[{'imgObject': {}, 'id': 'mashed potato', 'src': '/static/foodstim60/mashed potato.jpg', 'key': 'u', 'origWidth': 409, 'origHeight': 409, 'width': 409, 'height': 409, 'widthPercent': 0.45, 'rescaleHeight': False, 'trialN': 54, 'loaded': True, 'loadedTime': 3578.5, 'positionName': 'LEFT', 'positionCoords': [296.6, 255.5], 'bid': 4.38}, {'imgObject': {}, 'id': 'chicken nuggets2', 'src': '/static/foodstim60/chicken nuggets2.jpg', 'key': 'i', 'origWidth': 410, 'origHeight': 409, 'width': 410, 'height': 409, 'widthPercent': 0.45, 'rescaleHeight': False, 'trialN': 54, 'loaded': True, 'loadedTime': 3602.9000000953674, 'positionName': 'RIGHT', 'positionCoords': [764.4, 255.5], 'bid': 4.75}]",106349.70000004768,1669829339853,mashed potato,chicken nuggets2,4.38,4.75,0.3700000000000001,chicken nuggets2,899.6000000238419,905,904.3999999761581,True,i,107754.60000002384,1404.8999999761581,1669829341258,1405,HRV,HRV_0008,2022-11-30 17:32:36
55,"[{'imgObject': {}, 'id': 'fried eggs', 'src': '/static/foodstim60/fried eggs.jpg', 'key': 'u', 'origWidth': 410, 'origHeight': 410, 'width': 410, 'height': 410, 'widthPercent': 0.45, 'rescaleHeight': False, 'trialN': 55, 'loaded': True, 'loadedTime': 3695.8000000715256, 'positionName': 'LEFT', 'positionCoords': [295.6, 255], 'bid': 8.67}, {'imgObject': {}, 'id': 'burrito', 'src': '/static/foodstim60/burrito.jpg', 'key': 'i', 'origWidth': 410, 'origHeight': 410, 'width': 410, 'height': 410, 'widthPercent': 0.45, 'rescaleHeight': False, 'trialN': 55, 'loaded': True, 'loadedTime': 3488.2000000476837, 'positionName': 'RIGHT', 'positionCoords': [764.4, 255], 'bid': 8.63}]",107754.90000009537,1669829341258,fried eggs,burrito,8.67,8.63,-0.03999999999999915,burrito,1834.2999999523163,1841,1840.3999999761581,True,i,110095.5,2340.5999999046326,1669829343599,2341,HRV,HRV_0008,2022-11-30 17:32:36
56,"[{'imgObject': {}, 'id': 'tacos', 'src': '/static/foodstim60/tacos.jpg', 'key': 'u', 'origWidth': 411, 'origHeight': 411, 'width': 411, 'height': 411, 'widthPercent': 0.45, 'rescaleHeight': False, 'trialN': 56, 'loaded': True, 'loadedTime': 3568.100000023842, 'positionName': 'LEFT', 'positionCoords': [294.6, 254.5], 'bid': 8.17}, {'imgObject': {}, 'id': 'hotdog w must', 'src': '/static/foodstim60/hotdog w must.jpg', 'key': 'i', 'origWidth': 409, 'origHeight': 409, 'width': 409, 'height': 409, 'widthPercent': 0.45, 'rescaleHeight': False, 'trialN': 56, 'loaded': True, 'loadedTime': 3649.3000000715256, 'positionName': 'RIGHT', 'positionCoords': [764.4, 255.5], 'bid': 8.38}]",110095.70000004768,1669829343599,tacos,hotdog w must,8.17,8.38,0.21000000000000085,tacos,1153.5,1158,1158.0,True,u,111754.0,1658.2999999523163,1669829345257,1658,HRV,HRV_0008,2022-11-30 17:32:36
57,"[{'imgObject': {}, 'id': 'grilled chicken strips', 'src': '/static/foodstim60/grilled chicken strips.jpg', 'key': 'u', 'origWidth': 410, 'origHeight': 411, 'width': 410, 'height': 411, 'widthPercent': 0.45, 'rescaleHeight': False, 'trialN': 57, 'loaded': True, 'loadedTime': 3629.9000000953674, 'positionName': 'LEFT', 'positionCoords': [295.6, 254.5], 'bid': 8.44}, {'imgObject': {}, 'id': 'cherry tomato', 'src': '/static/foodstim60/cherry tomato.jpg', 'key': 'i', 'origWidth': 410, 'origHeight': 410, 'width': 410, 'height': 410, 'widthPercent': 0.45, 'rescaleHeight': False, 'trialN': 57, 'loaded': True, 'loadedTime': 3596.8000000715256, 'positionName': 'RIGHT', 'positionCoords': [764.4, 255], 'bid': 6.140000000000001}]",111754.20000004768,1669829345258,grilled chicken strips,cherry tomato,8.44,6.140000000000001,-2.299999999999999,grilled chicken strips,986.8999999761581,991,991.1000000238419,True,u,113245.5,1491.2999999523163,1669829346749,1491,HRV,HRV_0008,2022-11-30 17:32:36
58,"[{'imgObject': {}, 'id': 'raisin bran w milk', 'src': '/static/foodstim60/raisin bran w milk.jpg', 'key': 'u', 'origWidth': 411, 'origHeight': 411, 'width': 411, 'height': 411, 'widthPercent': 0.45, 'rescaleHeight': False, 'trialN': 58, 'loaded': True, 'loadedTime': 3331.7000000476837, 'positionName': 'LEFT', 'positionCoords': [294.6, 254.5], 'bid': 1.82}, {'imgObject': {}, 'id': 'blueberries', 'src': '/static/foodstim60/blueberries.jpg', 'key': 'i', 'origWidth': 411, 'origHeight': 411, 'width': 411, 'height': 411, 'widthPercent': 0.45, 'rescaleHeight': False, 'trialN': 58, 'loaded': True, 'loadedTime': 3366.100000023842, 'positionName': 'RIGHT', 'positionCoords': [764.4, 254.5], 'bid': 2.26}]",113245.70000004768,1669829346749,raisin bran w milk,blueberries,1.82,2.26,0.4399999999999997,raisin bran w milk,1365.3999999761581,1370,1369.7000000476837,True,u,115115.70000004768,1870.0,1669829348619,1870,HRV,HRV_0008,2022-11-30 17:32:36
59,"[{'imgObject': {}, 'id': 'bagel and cc', 'src': '/static/foodstim60/bagel and cc.jpg', 'key': 'u', 'origWidth': 410, 'origHeight': 410, 'width': 410, 'height': 410, 'widthPercent': 0.45, 'rescaleHeight': False, 'trialN': 59, 'loaded': True, 'loadedTime': 3601.5, 'positionName': 'LEFT', 'positionCoords': [295.6, 255], 'bid': 9.02}, {'imgObject': {}, 'id': 'burger', 'src': '/static/foodstim60/burger.jpg', 'key': 'i', 'origWidth': 409, 'origHeight': 409, 'width': 409, 'height': 409, 'widthPercent': 0.45, 'rescaleHeight': False, 'trialN': 59, 'loaded': True, 'loadedTime': 3696.2000000476837, 'positionName': 'RIGHT', 'positionCoords': [764.4, 255.5], 'bid': 9.31}]",115116.0,1669829348619,bagel and cc,burger,9.02,9.31,0.2900000000000009,burger,1402.8000000715256,1406,1405.6000000238419,True,i,117022.5,1906.5,1669829350526,1907,HRV,HRV_0008,2022-11-30 17:32:36
60,"[{'imgObject': {}, 'id': 'strawberries', 'src': '/static/foodstim60/strawberries.jpg', 'key': 'u', 'origWidth': 410, 'origHeight': 410, 'width': 410, 'height': 410, 'widthPercent': 0.45, 'rescaleHeight': False, 'trialN': 60, 'loaded': True, 'loadedTime': 3460, 'positionName': 'LEFT', 'positionCoords': [295.6, 255], 'bid': 3.69}, {'imgObject': {}, 'id': 'cherries', 'src': '/static/foodstim60/cherries.jpg', 'key': 'i', 'origWidth': 410, 'origHeight': 411, 'width': 410, 'height': 411, 'widthPercent': 0.45, 'rescaleHeight': False, 'trialN': 60, 'loaded': True, 'loadedTime': 3363.4000000953674, 'positionName': 'RIGHT', 'positionCoords': [764.4, 254.5], 'bid': 1.31}]",117022.70000004768,1669829350526,strawberries,cherries,3.69,1.31,-2.38,strawberries,1184.2000000476837,1189,1188.5,True,u,118711.5,1688.7999999523163,1669829352215,1689,HRV,HRV_0008,2022-11-30 17:32:36
61,"[{'imgObject': {}, 'id': 'salad w chicken', 'src': '/static/foodstim60/salad w chicken.jpg', 'key': 'u', 'origWidth': 411, 'origHeight': 411, 'width': 411, 'height': 411, 'widthPercent': 0.45, 'rescaleHeight': False, 'trialN': 61, 'loaded': True, 'loadedTime': 3593.8000000715256, 'positionName': 'LEFT', 'positionCoords': [294.6, 254.5], 'bid': 6.33}, {'imgObject': {}, 'id': 'luckycharms', 'src': '/static/foodstim60/luckycharms.jpg', 'key': 'i', 'origWidth': 410, 'origHeight': 409, 'width': 410, 'height': 409, 'widthPercent': 0.45, 'rescaleHeight': False, 'trialN': 61, 'loaded': True, 'loadedTime': 3650.9000000953674, 'positionName': 'RIGHT', 'positionCoords': [764.4, 255.5], 'bid': 0.51}]",118711.70000004768,1669829352215,salad w chicken,luckycharms,6.33,0.51,-5.82,salad w chicken,1286.2000000476837,1292,1291.7999999523163,True,u,120503.90000009537,1792.2000000476837,1669829354007,1792,HRV,HRV_0008,2022-11-30 17:32:36
62,"[{'imgObject': {}, 'id': 'corn cob', 'src': '/static/foodstim60/corn cob.jpg', 'key': 'u', 'origWidth': 411, 'origHeight': 411, 'width': 411, 'height': 411, 'widthPercent': 0.45, 'rescaleHeight': False, 'trialN': 62, 'loaded': True, 'loadedTime': 3355.100000023842, 'positionName': 'LEFT', 'positionCoords': [294.6, 254.5], 'bid': 5.8}, {'imgObject': {}, 'id': 'yogurt no spoon', 'src': '/static/foodstim60/yogurt no spoon.jpg', 'key': 'i', 'origWidth': 411, 'origHeight': 410, 'width': 411, 'height': 410, 'widthPercent': 0.45, 'rescaleHeight': False, 'trialN': 62, 'loaded': True, 'loadedTime': 3596.2000000476837, 'positionName': 'RIGHT', 'positionCoords': [764.4, 255], 'bid': 6.44}]",120504.10000002384,1669829354008,corn cob,yogurt no spoon,5.8,6.44,0.6400000000000006,yogurt no spoon,1269.2000000476837,1273,1273.2000000476837,True,i,122277.60000002384,1773.5,1669829355781,1773,HRV,HRV_0008,2022-11-30 17:32:36
63,"[{'imgObject': {}, 'id': 'mango', 'src': '/static/foodstim60/mango.jpg', 'key': 'u', 'origWidth': 411, 'origHeight': 411, 'width': 411, 'height': 411, 'widthPercent': 0.45, 'rescaleHeight': False, 'trialN': 63, 'loaded': True, 'loadedTime': 3664.100000023842, 'positionName': 'LEFT', 'positionCoords': [294.6, 254.5], 'bid': 1.31}, {'imgObject': {}, 'id': 'fruitsalad', 'src': '/static/foodstim60/fruitsalad.jpg', 'key': 'i', 'origWidth': 410, 'origHeight': 410, 'width': 410, 'height': 410, 'widthPercent': 0.45, 'rescaleHeight': False, 'trialN': 63, 'loaded': True, 'loadedTime': 3679.8000000715256, 'positionName': 'RIGHT', 'positionCoords': [764.4, 255], 'bid': 1.65}]",122277.90000009537,1669829355781,mango,fruitsalad,1.31,1.65,0.33999999999999986,mango,2201.6999999284744,2206,2205.5999999046326,True,u,124983.80000007153,2705.899999976158,1669829358487,2706,HRV,HRV_0008,2022-11-30 17:32:36
64,"[{'imgObject': {}, 'id': 'Tribe humus pita', 'src': '/static/foodstim60/Tribe humus pita.jpg', 'key': 'u', 'origWidth': 411, 'origHeight': 411, 'width': 411, 'height': 411, 'widthPercent': 0.45, 'rescaleHeight': False, 'trialN': 64, 'loaded': True, 'loadedTime': 3430.3000000715256, 'positionName': 'LEFT', 'positionCoords': [294.6, 254.5], 'bid': 7.66}, {'imgObject': {}, 'id': 'cocktailshrimp', 'src': '/static/foodstim60/cocktailshrimp.jpg', 'key': 'i', 'origWidth': 410, 'origHeight': 410, 'width': 410, 'height': 410, 'widthPercent': 0.45, 'rescaleHeight': False, 'trialN': 64, 'loaded': True, 'loadedTime': 3599.4000000953674, 'positionName': 'RIGHT', 'positionCoords': [764.4, 255], 'bid': 8.86}]",124984.10000002384,1669829358488,Tribe humus pita,cocktailshrimp,7.66,8.86,1.1999999999999993,cocktailshrimp,1340.2000000476837,1343,1343.3000000715256,True,i,126827.60000002384,1843.5,1669829360331,1843,HRV,HRV_0008,2022-11-30 17:32:36
65,"[{'imgObject': {}, 'id': 'apple slices', 'src': '/static/foodstim60/apple slices.jpg', 'key': 'u', 'origWidth': 409, 'origHeight': 410, 'width': 409, 'height': 410, 'widthPercent': 0.45, 'rescaleHeight': False, 'trialN': 65, 'loaded': True, 'loadedTime': 3665.600000023842, 'positionName': 'LEFT', 'positionCoords': [296.6, 255], 'bid': 0.6}, {'imgObject': {}, 'id': 'yogurt no spoon', 'src': '/static/foodstim60/yogurt no spoon.jpg', 'key': 'i', 'origWidth': 411, 'origHeight': 410, 'width': 411, 'height': 410, 'widthPercent': 0.45, 'rescaleHeight': False, 'trialN': 65, 'loaded': True, 'loadedTime': 3596.3000000715256, 'positionName': 'RIGHT', 'positionCoords': [764.4, 255], 'bid': 6.44}]",126827.90000009537,1669829360331,apple slices,yogurt no spoon,0.6,6.44,5.840000000000001,yogurt no spoon,1226.8999999761581,1232,1231.1999999284744,True,i,128559.30000007153,1731.3999999761581,1669829362063,1732,HRV,HRV_0008,2022-11-30 17:32:36
66,"[{'imgObject': {}, 'id': 'popsicles', 'src': '/static/foodstim60/popsicles.jpg', 'key': 'u', 'origWidth': 410, 'origHeight': 410, 'width': 410, 'height': 410, 'widthPercent': 0.45, 'rescaleHeight': False, 'trialN': 66, 'loaded': True, 'loadedTime': 3710.8000000715256, 'positionName': 'LEFT', 'positionCoords': [295.6, 255], 'bid': 6.71}, {'imgObject': {}, 'id': 'mac & cheese', 'src': '/static/foodstim60/mac & cheese.jpg', 'key': 'i', 'origWidth': 410, 'origHeight': 410, 'width': 410, 'height': 410, 'widthPercent': 0.45, 'rescaleHeight': False, 'trialN': 66, 'loaded': True, 'loadedTime': 3696.9000000953674, 'positionName': 'RIGHT', 'positionCoords': [764.4, 255], 'bid': 4.4}]",128559.60000002384,1669829362063,popsicles,mac & cheese,6.71,4.4,-2.3099999999999996,mac & cheese,1022.2000000476837,1026,1025.6000000238419,True,i,130085.5,1525.8999999761581,1669829363589,1526,HRV,HRV_0008,2022-11-30 17:32:36
67,"[{'imgObject': {}, 'id': 'mac & cheese', 'src': '/static/foodstim60/mac & cheese.jpg', 'key': 'u', 'origWidth': 410, 'origHeight': 410, 'width': 410, 'height': 410, 'widthPercent': 0.45, 'rescaleHeight': False, 'trialN': 67, 'loaded': True, 'loadedTime': 3697, 'positionName': 'LEFT', 'positionCoords': [295.6, 255], 'bid': 4.4}, {'imgObject': {}, 'id': 'corn cob', 'src': '/static/foodstim60/corn cob.jpg', 'key': 'i', 'origWidth': 411, 'origHeight': 411, 'width': 411, 'height': 411, 'widthPercent': 0.45, 'rescaleHeight': False, 'trialN': 67, 'loaded': True, 'loadedTime': 3353.3000000715256, 'positionName': 'RIGHT', 'positionCoords': [764.4, 254.5], 'bid': 5.8}]",130085.70000004768,1669829363589,mac & cheese,corn cob,4.4,5.8,1.3999999999999995,mac & cheese,994.1000000238419,1000,999.7000000476837,True,u,131585.60000002384,1499.8999999761581,1669829365089,1500,HRV,HRV_0008,2022-11-30 17:32:36
68,"[{'imgObject': {}, 'id': 'eggsalad', 'src': '/static/foodstim60/eggsalad.jpg', 'key': 'u', 'origWidth': 410, 'origHeight': 409, 'width': 410, 'height': 409, 'widthPercent': 0.45, 'rescaleHeight': False, 'trialN': 68, 'loaded': True, 'loadedTime': 3593.8000000715256, 'positionName': 'LEFT', 'positionCoords': [295.6, 255.5], 'bid': 7.72}, {'imgObject': {}, 'id': 'banana', 'src': '/static/foodstim60/banana.jpg', 'key': 'i', 'origWidth': 410, 'origHeight': 410, 'width': 410, 'height': 410, 'widthPercent': 0.45, 'rescaleHeight': False, 'trialN': 68, 'loaded': True, 'loadedTime': 3473.9000000953674, 'positionName': 'RIGHT', 'positionCoords': [764.4, 255], 'bid': 8.9}]",131586.0,1669829365089,eggsalad,banana,7.72,8.9,1.1800000000000006,eggsalad,1816.8000000715256,1821,1820.4000000953674,True,u,133906.70000004768,2320.7000000476837,1669829367410,2321,HRV,HRV_0008,2022-11-30 17:32:36
69,"[{'imgObject': {}, 'id': 'strawberries', 'src': '/static/foodstim60/strawberries.jpg', 'key': 'u', 'origWidth': 410, 'origHeight': 410, 'width': 410, 'height': 410, 'widthPercent': 0.45, 'rescaleHeight': False, 'trialN': 69, 'loaded': True, 'loadedTime': 3460, 'positionName': 'LEFT', 'positionCoords': [295.6, 255], 'bid': 3.69}, {'imgObject': {}, 'id': 'rigatoni', 'src': '/static/foodstim60/rigatoni.jpg', 'key': 'i', 'origWidth': 411, 'origHeight': 411, 'width': 411, 'height': 411, 'widthPercent': 0.45, 'rescaleHeight': False, 'trialN': 69, 'loaded': True, 'loadedTime': 3564.5, 'positionName': 'RIGHT', 'positionCoords': [764.4, 254.5], 'bid': 3.73}]",133907.0,1669829367410,strawberries,rigatoni,3.69,3.73,0.040000000000000036,rigatoni,1396.7000000476837,1401,1400.9000000953674,True,i,135808.40000009537,1901.4000000953674,1669829369312,1902,HRV,HRV_0008,2022-11-30 17:32:36
70,"[{'imgObject': {}, 'id': 'hotdog w must', 'src': '/static/foodstim60/hotdog w must.jpg', 'key': 'u', 'origWidth': 409, 'origHeight': 409, 'width': 409, 'height': 409, 'widthPercent': 0.45, 'rescaleHeight': False, 'trialN': 70, 'loaded': True, 'loadedTime': 3649.4000000953674, 'positionName': 'LEFT', 'positionCoords': [296.6, 255.5], 'bid': 8.38}, {'imgObject': {}, 'id': 'burger', 'src': '/static/foodstim60/burger.jpg', 'key': 'i', 'origWidth': 409, 'origHeight': 409, 'width': 409, 'height': 409, 'widthPercent': 0.45, 'rescaleHeight': False, 'trialN': 70, 'loaded': True, 'loadedTime': 3696.3000000715256, 'positionName': 'RIGHT', 'positionCoords': [764.4, 255.5], 'bid': 9.31}]",135808.70000004768,1669829369312,hotdog w must,burger,8.38,9.31,0.9299999999999997,burger,854.8999999761581,859,859.2000000476837,True,i,137168.40000009537,1359.7000000476837,1669829370672,1360,HRV,HRV_0008,2022-11-30 17:32:36
71,"[{'imgObject': {}, 'id': 'chickenfingers', 'src': '/static/foodstim60/chickenfingers.jpg', 'key': 'u', 'origWidth': 410, 'origHeight': 410, 'width': 410, 'height': 410, 'widthPercent': 0.45, 'rescaleHeight': False, 'trialN': 71, 'loaded': True, 'loadedTime': 3697.4000000953674, 'positionName': 'LEFT', 'positionCoords': [295.6, 255], 'bid': 9}, {'imgObject': {}, 'id': 'banana', 'src': '/static/foodstim60/banana.jpg', 'key': 'i', 'origWidth': 410, 'origHeight': 410, 'width': 410, 'height': 410, 'widthPercent': 0.45, 'rescaleHeight': False, 'trialN': 71, 'loaded': True, 'loadedTime': 3474, 'positionName': 'RIGHT', 'positionCoords': [764.4, 255], 'bid': 8.9}]",137168.60000002384,1669829370672,chickenfingers,banana,9.0,8.9,-0.09999999999999964,chickenfingers,1171.1000000238419,1175,1175.3000000715256,True,u,138844.30000007153,1675.7000000476837,1669829372348,1676,HRV,HRV_0008,2022-11-30 17:32:36
72,"[{'imgObject': {}, 'id': 'popsicles', 'src': '/static/foodstim60/popsicles.jpg', 'key': 'u', 'origWidth': 410, 'origHeight': 410, 'width': 410, 'height': 410, 'widthPercent': 0.45, 'rescaleHeight': False, 'trialN': 72, 'loaded': True, 'loadedTime': 3711.2000000476837, 'positionName': 'LEFT', 'positionCoords': [295.6, 255], 'bid': 6.71}, {'imgObject': {}, 'id': 'ice cream sundae 002', 'src': '/static/foodstim60/ice cream sundae 002.jpg', 'key': 'i', 'origWidth': 409, 'origHeight': 409, 'width': 409, 'height': 409, 'widthPercent': 0.45, 'rescaleHeight': False, 'trialN': 72, 'loaded': True, 'loadedTime': 3358.2000000476837, 'positionName': 'RIGHT', 'positionCoords': [764.4, 255.5], 'bid': 6}]",138844.70000004768,1669829372348,popsicles,ice cream sundae 002,6.71,6.0,-0.71,ice cream sundae 002,1215.7000000476837,1220,1219.6000000238419,True,i,140564.60000002384,1719.8999999761581,1669829374068,1720,HRV,HRV_0008,2022-11-30 17:32:36
73,"[{'imgObject': {}, 'id': 'lox', 'src': '/static/foodstim60/lox.jpg', 'key': 'u', 'origWidth': 410, 'origHeight': 411, 'width': 410, 'height': 411, 'widthPercent': 0.45, 'rescaleHeight': False, 'trialN': 73, 'loaded': True, 'loadedTime': 3679.100000023842, 'positionName': 'LEFT', 'positionCoords': [295.6, 254.5], 'bid': 8.11}, {'imgObject': {}, 'id': 'seaweed', 'src': '/static/foodstim60/seaweed.jpg', 'key': 'i', 'origWidth': 410, 'origHeight': 410, 'width': 410, 'height': 410, 'widthPercent': 0.45, 'rescaleHeight': False, 'trialN': 73, 'loaded': True, 'loadedTime': 3600.8000000715256, 'positionName': 'RIGHT', 'positionCoords': [764.4, 255], 'bid': 8.67}]",140564.90000009537,1669829374068,lox,seaweed,8.11,8.67,0.5600000000000005,lox,1142.5,1149,1148.2999999523163,True,u,142213.40000009537,1648.5,1669829375717,1649,HRV,HRV_0008,2022-11-30 17:32:36
74,"[{'imgObject': {}, 'id': 'mango', 'src': '/static/foodstim60/mango.jpg', 'key': 'u', 'origWidth': 411, 'origHeight': 411, 'width': 411, 'height': 411, 'widthPercent': 0.45, 'rescaleHeight': False, 'trialN': 74, 'loaded': True, 'loadedTime': 3664.100000023842, 'positionName': 'LEFT', 'positionCoords': [294.6, 254.5], 'bid': 1.31}, {'imgObject': {}, 'id': 'olives', 'src': '/static/foodstim60/olives.jpg', 'key': 'i', 'origWidth': 410, 'origHeight': 410, 'width': 410, 'height': 410, 'widthPercent': 0.45, 'rescaleHeight': False, 'trialN': 74, 'loaded': True, 'loadedTime': 3694.5, 'positionName': 'RIGHT', 'positionCoords': [764.4, 255], 'bid': 0.5700000000000001}]",142213.80000007153,1669829375717,mango,olives,1.31,0.5700000000000001,-0.74,mango,989.6000000238419,994,994.1000000238419,True,u,143708.20000004768,1494.3999999761581,1669829377212,1495,HRV,HRV_0008,2022-11-30 17:32:36
75,"[{'imgObject': {}, 'id': 'cherries', 'src': '/static/foodstim60/cherries.jpg', 'key': 'u', 'origWidth': 410, 'origHeight': 411, 'width': 410, 'height': 411, 'widthPercent': 0.45, 'rescaleHeight': False, 'trialN': 75, 'loaded': True, 'loadedTime': 3363.600000023842, 'positionName': 'LEFT', 'positionCoords': [295.6, 254.5], 'bid': 1.31}, {'imgObject': {}, 'id': 'luckycharms', 'src': '/static/foodstim60/luckycharms.jpg', 'key': 'i', 'origWidth': 410, 'origHeight': 409, 'width': 410, 'height': 409, 'widthPercent': 0.45, 'rescaleHeight': False, 'trialN': 75, 'loaded': True, 'loadedTime': 3663.5, 'positionName': 'RIGHT', 'positionCoords': [764.4, 255.5], 'bid': 0.51}]",143708.5,1669829377212,cherries,luckycharms,1.31,0.51,-0.8,cherries,1402.5,1407,1407.1000000238419,True,u,145615.90000009537,1907.4000000953674,1669829379119,1907,HRV,HRV_0008,2022-11-30 17:32:36
76,"[{'imgObject': {}, 'id': 'roastedpotatoes', 'src': '/static/foodstim60/roastedpotatoes.jpg', 'key': 'u', 'origWidth': 409, 'origHeight': 410, 'width': 409, 'height': 410, 'widthPercent': 0.45, 'rescaleHeight': False, 'trialN': 76, 'loaded': True, 'loadedTime': 3678, 'positionName': 'LEFT', 'positionCoords': [296.6, 255], 'bid': 7.61}, {'imgObject': {}, 'id': 'corn cob', 'src': '/static/foodstim60/corn cob.jpg', 'key': 'i', 'origWidth': 411, 'origHeight': 411, 'width': 411, 'height': 411, 'widthPercent': 0.45, 'rescaleHeight': False, 'trialN': 76, 'loaded': True, 'loadedTime': 3354, 'positionName': 'RIGHT', 'positionCoords': [764.4, 254.5], 'bid': 5.8}]",145616.20000004768,1669829379120,roastedpotatoes,corn cob,7.61,5.8,-1.8100000000000005,roastedpotatoes,1353.8999999761581,1357,1357.6000000238419,True,u,147474.20000004768,1858.0,1669829380978,1858,HRV,HRV_0008,2022-11-30 17:32:36
77,"[{'imgObject': {}, 'id': 'chickenfingers', 'src': '/static/foodstim60/chickenfingers.jpg', 'key': 'u', 'origWidth': 410, 'origHeight': 410, 'width': 410, 'height': 410, 'widthPercent': 0.45, 'rescaleHeight': False, 'trialN': 77, 'loaded': True, 'loadedTime': 3697.4000000953674, 'positionName': 'LEFT', 'positionCoords': [295.6, 255], 'bid': 9}, {'imgObject': {}, 'id': 'mac & cheese', 'src': '/static/foodstim60/mac & cheese.jpg', 'key': 'i', 'origWidth': 410, 'origHeight': 410, 'width': 410, 'height': 410, 'widthPercent': 0.45, 'rescaleHeight': False, 'trialN': 77, 'loaded': True, 'loadedTime': 3696.8000000715256, 'positionName': 'RIGHT', 'positionCoords': [764.4, 255], 'bid': 4.4}]",147474.40000009537,1669829380978,chickenfingers,mac & cheese,9.0,4.4,-4.6,chickenfingers,1284.8999999761581,1289,1289.5,True,u,149264.10000002384,1789.6999999284744,1669829382768,1790,HRV,HRV_0008,2022-11-30 17:32:36
78,"[{'imgObject': {}, 'id': 'salmon', 'src': '/static/foodstim60/salmon.jpg', 'key': 'u', 'origWidth': 410, 'origHeight': 409, 'width': 410, 'height': 409, 'widthPercent': 0.45, 'rescaleHeight': False, 'trialN': 78, 'loaded': True, 'loadedTime': 3611.2000000476837, 'positionName': 'LEFT', 'positionCoords': [295.6, 255.5], 'bid': 8.53}, {'imgObject': {}, 'id': 'eggs', 'src': '/static/foodstim60/eggs.jpg', 'key': 'i', 'origWidth': 409, 'origHeight': 409, 'width': 409, 'height': 409, 'widthPercent': 0.45, 'rescaleHeight': False, 'trialN': 78, 'loaded': True, 'loadedTime': 3415.7000000476837, 'positionName': 'RIGHT', 'positionCoords': [764.4, 255.5], 'bid': 8.41}]",149264.30000007153,1669829382768,salmon,eggs,8.53,8.41,-0.11999999999999922,salmon,1283.1999999284744,1287,1286.7999999523163,True,u,151051.40000009537,1787.1000000238419,1669829384555,1787,HRV,HRV_0008,2022-11-30 17:32:36
79,"[{'imgObject': {}, 'id': 'corn cob', 'src': '/static/foodstim60/corn cob.jpg', 'key': 'u', 'origWidth': 411, 'origHeight': 411, 'width': 411, 'height': 411, 'widthPercent': 0.45, 'rescaleHeight': False, 'trialN': 79, 'loaded': True, 'loadedTime': 3354.7000000476837, 'positionName': 'LEFT', 'positionCoords': [294.6, 254.5], 'bid': 5.8}, {'imgObject': {}, 'id': 'turkey sandwich', 'src': '/static/foodstim60/turkey sandwich.jpg', 'key': 'i', 'origWidth': 409, 'origHeight': 409, 'width': 409, 'height': 409, 'widthPercent': 0.45, 'rescaleHeight': False, 'trialN': 79, 'loaded': True, 'loadedTime': 3697.5, 'positionName': 'RIGHT', 'positionCoords': [764.4, 255.5], 'bid': 9.06}]",151051.60000002384,1669829384555,corn cob,turkey sandwich,5.8,9.06,3.2600000000000007,turkey sandwich,1343.7000000476837,1350,1349.6000000238419,True,i,152901.60000002384,1850.0,1669829386405,1850,HRV,HRV_0008,2022-11-30 17:32:36
80,"[{'imgObject': {}, 'id': 'bagel and cc', 'src': '/static/foodstim60/bagel and cc.jpg', 'key': 'u', 'origWidth': 410, 'origHeight': 410, 'width': 410, 'height': 410, 'widthPercent': 0.45, 'rescaleHeight': False, 'trialN': 80, 'loaded': True, 'loadedTime': 3601.7000000476837, 'positionName': 'LEFT', 'positionCoords': [295.6, 255], 'bid': 9.02}, {'imgObject': {}, 'id': 'turkey sandwich', 'src': '/static/foodstim60/turkey sandwich.jpg', 'key': 'i', 'origWidth': 409, 'origHeight': 409, 'width': 409, 'height': 409, 'widthPercent': 0.45, 'rescaleHeight': False, 'trialN': 80, 'loaded': True, 'loadedTime': 3709.600000023842, 'positionName': 'RIGHT', 'positionCoords': [764.4, 255.5], 'bid': 9.06}]",152901.70000004768,1669829386405,bagel and cc,turkey sandwich,9.02,9.06,0.040000000000000924,turkey sandwich,1746.5,1751,1751.1000000238419,True,i,155153.0,2251.2999999523163,1669829388657,2252,HRV,HRV_0008,2022-11-30 17:32:36
81,"[{'imgObject': {}, 'id': 'chicken nuggets2', 'src': '/static/foodstim60/chicken nuggets2.jpg', 'key': 'u', 'origWidth': 410, 'origHeight': 409, 'width': 410, 'height': 409, 'widthPercent': 0.45, 'rescaleHeight': False, 'trialN': 81, 'loaded': True, 'loadedTime': 3602.4000000953674, 'positionName': 'LEFT', 'positionCoords': [295.6, 255.5], 'bid': 4.75}, {'imgObject': {}, 'id': 'edamame', 'src': '/static/foodstim60/edamame.jpg', 'key': 'i', 'origWidth': 409, 'origHeight': 410, 'width': 409, 'height': 410, 'widthPercent': 0.45, 'rescaleHeight': False, 'trialN': 81, 'loaded': True, 'loadedTime': 3459.3000000715256, 'positionName': 'RIGHT', 'positionCoords': [764.4, 255], 'bid': 6.4}]",155153.30000007153,1669829388657,chicken nuggets2,edamame,4.75,6.4,1.6500000000000004,chicken nuggets2,1613.6000000238419,1618,1617.7999999523163,True,u,157271.5,2118.1999999284744,1669829390775,2118,HRV,HRV_0008,2022-11-30 17:32:36
82,"[{'imgObject': {}, 'id': 'omelette', 'src': '/static/foodstim60/omelette.jpg', 'key': 'u', 'origWidth': 410, 'origHeight': 409, 'width': 410, 'height': 409, 'widthPercent': 0.45, 'rescaleHeight': False, 'trialN': 82, 'loaded': True, 'loadedTime': 3565.7000000476837, 'positionName': 'LEFT', 'positionCoords': [295.6, 255.5], 'bid': 8.72}, {'imgObject': {}, 'id': 'granola w milk', 'src': '/static/foodstim60/granola w milk.jpg', 'key': 'i', 'origWidth': 410, 'origHeight': 410, 'width': 410, 'height': 410, 'widthPercent': 0.45, 'rescaleHeight': False, 'trialN': 82, 'loaded': True, 'loadedTime': 3561.600000023842, 'positionName': 'RIGHT', 'positionCoords': [764.4, 255], 'bid': 3.5700000000000003}]",157271.70000004768,1669829390775,omelette,granola w milk,8.72,3.5700000000000003,-5.15,omelette,1066.2999999523163,1071,1070.8999999761581,True,u,158842.90000009537,1571.2000000476837,1669829392346,1571,HRV,HRV_0008,2022-11-30 17:32:36
83,"[{'imgObject': {}, 'id': 'salad w chicken', 'src': '/static/foodstim60/salad w chicken.jpg', 'key': 'u', 'origWidth': 411, 'origHeight': 411, 'width': 411, 'height': 411, 'widthPercent': 0.45, 'rescaleHeight': False, 'trialN': 83, 'loaded': True, 'loadedTime': 3595.7000000476837, 'positionName': 'LEFT', 'positionCoords': [294.6, 254.5], 'bid': 6.33}, {'imgObject': {}, 'id': 'granola w milk', 'src': '/static/foodstim60/granola w milk.jpg', 'key': 'i', 'origWidth': 410, 'origHeight': 410, 'width': 410, 'height': 410, 'widthPercent': 0.45, 'rescaleHeight': False, 'trialN': 83, 'loaded': True, 'loadedTime': 3562.100000023842, 'positionName': 'RIGHT', 'positionCoords': [764.4, 255], 'bid': 3.5700000000000003}]",158843.20000004768,1669829392347,salad w chicken,granola w milk,6.33,3.5700000000000003,-2.76,salad w chicken,1538.8999999761581,1543,1543.3999999761581,True,u,160886.90000009537,2043.7000000476837,1669829394390,2043,HRV,HRV_0008,2022-11-30 17:32:36
84,"[{'imgObject': {}, 'id': 'rigatoni and sauce', 'src': '/static/foodstim60/rigatoni and sauce.jpg', 'key': 'u', 'origWidth': 410, 'origHeight': 411, 'width': 410, 'height': 411, 'widthPercent': 0.45, 'rescaleHeight': False, 'trialN': 84, 'loaded': True, 'loadedTime': 3531.5, 'positionName': 'LEFT', 'positionCoords': [295.6, 254.5], 'bid': 8.23}, {'imgObject': {}, 'id': 'lox', 'src': '/static/foodstim60/lox.jpg', 'key': 'i', 'origWidth': 410, 'origHeight': 411, 'width': 410, 'height': 411, 'widthPercent': 0.45, 'rescaleHeight': False, 'trialN': 84, 'loaded': True, 'loadedTime': 3679.2000000476837, 'positionName': 'RIGHT', 'positionCoords': [764.4, 254.5], 'bid': 8.11}]",160887.20000004768,1669829394391,rigatoni and sauce,lox,8.23,8.11,-0.120000000000001,rigatoni and sauce,892.0,896,896.5,True,u,162283.90000009537,1396.7000000476837,1669829395787,1396,HRV,HRV_0008,2022-11-30 17:32:36
85,"[{'imgObject': {}, 'id': 'mac & cheese', 'src': '/static/foodstim60/mac & cheese.jpg', 'key': 'u', 'origWidth': 410, 'origHeight': 410, 'width': 410, 'height': 410, 'widthPercent': 0.45, 'rescaleHeight': False, 'trialN': 85, 'loaded': True, 'loadedTime': 3697, 'positionName': 'LEFT', 'positionCoords': [295.6, 255], 'bid': 4.4}, {'imgObject': {}, 'id': 'mashed potato', 'src': '/static/foodstim60/mashed potato.jpg', 'key': 'i', 'origWidth': 409, 'origHeight': 409, 'width': 409, 'height': 409, 'widthPercent': 0.45, 'rescaleHeight': False, 'trialN': 85, 'loaded': True, 'loadedTime': 3577.9000000953674, 'positionName': 'RIGHT', 'positionCoords': [764.4, 255.5], 'bid': 4.38}]",162284.20000004768,1669829395788,mac & cheese,mashed potato,4.4,4.38,-0.020000000000000462,mac & cheese,1326.6000000238419,1332,1332.2999999523163,True,u,164116.80000007153,1832.6000000238419,1669829397620,1832,HRV,HRV_0008,2022-11-30 17:32:36
86,"[{'imgObject': {}, 'id': 'shreddedwheatwithmilk', 'src': '/static/foodstim60/shreddedwheatwithmilk.jpg', 'key': 'u', 'origWidth': 410, 'origHeight': 410, 'width': 410, 'height': 410, 'widthPercent': 0.45, 'rescaleHeight': False, 'trialN': 86, 'loaded': True, 'loadedTime': 3377, 'positionName': 'LEFT', 'positionCoords': [295.6, 255], 'bid': 3.38}, {'imgObject': {}, 'id': 'blackbeanswithrice', 'src': '/static/foodstim60/blackbeanswithrice.jpg', 'key': 'i', 'origWidth': 410, 'origHeight': 410, 'width': 410, 'height': 410, 'widthPercent': 0.45, 'rescaleHeight': False, 'trialN': 86, 'loaded': True, 'loadedTime': 3695.100000023842, 'positionName': 'RIGHT', 'positionCoords': [764.4, 255], 'bid': 3.1}]",164117.10000002384,1669829397621,shreddedwheatwithmilk,blackbeanswithrice,3.38,3.1,-0.2799999999999998,shreddedwheatwithmilk,1415.5,1419,1419.2000000476837,True,u,166036.5,1919.3999999761581,1669829399540,1919,HRV,HRV_0008,2022-11-30 17:32:36
87,"[{'imgObject': {}, 'id': 'bagel and cc', 'src': '/static/foodstim60/bagel and cc.jpg', 'key': 'u', 'origWidth': 410, 'origHeight': 410, 'width': 410, 'height': 410, 'widthPercent': 0.45, 'rescaleHeight': False, 'trialN': 87, 'loaded': True, 'loadedTime': 3601.5, 'positionName': 'LEFT', 'positionCoords': [295.6, 255], 'bid': 9.02}, {'imgObject': {}, 'id': 'seaweed', 'src': '/static/foodstim60/seaweed.jpg', 'key': 'i', 'origWidth': 410, 'origHeight': 410, 'width': 410, 'height': 410, 'widthPercent': 0.45, 'rescaleHeight': False, 'trialN': 87, 'loaded': True, 'loadedTime': 3601, 'positionName': 'RIGHT', 'positionCoords': [764.4, 255], 'bid': 8.67}]",166036.70000004768,1669829399540,bagel and cc,seaweed,9.02,8.67,-0.34999999999999964,bagel and cc,1145.2000000476837,1150,1149.6000000238419,True,u,167686.60000002384,1649.8999999761581,1669829401190,1650,HRV,HRV_0008,2022-11-30 17:32:36
88,"[{'imgObject': {}, 'id': 'fried eggs', 'src': '/static/foodstim60/fried eggs.jpg', 'key': 'u', 'origWidth': 410, 'origHeight': 410, 'width': 410, 'height': 410, 'widthPercent': 0.45, 'rescaleHeight': False, 'trialN': 88, 'loaded': True, 'loadedTime': 3695.4000000953674, 'positionName': 'LEFT', 'positionCoords': [295.6, 255], 'bid': 8.67}, {'imgObject': {}, 'id': 'omelette', 'src': '/static/foodstim60/omelette.jpg', 'key': 'i', 'origWidth': 410, 'origHeight': 409, 'width': 410, 'height': 409, 'widthPercent': 0.45, 'rescaleHeight': False, 'trialN': 88, 'loaded': True, 'loadedTime': 3566, 'positionName': 'RIGHT', 'positionCoords': [764.4, 255.5], 'bid': 8.72}]",167686.80000007153,1669829401190,fried eggs,omelette,8.67,8.72,0.05000000000000071,omelette,1473.0,1478,1477.5,True,i,169664.80000007153,1978.0,1669829403168,1978,HRV,HRV_0008,2022-11-30 17:32:36
89,"[{'imgObject': {}, 'id': 'cheerios', 'src': '/static/foodstim60/cheerios.jpg', 'key': 'u', 'origWidth': 409, 'origHeight': 410, 'width': 409, 'height': 410, 'widthPercent': 0.45, 'rescaleHeight': False, 'trialN': 89, 'loaded': True, 'loadedTime': 3356.600000023842, 'positionName': 'LEFT', 'positionCoords': [296.6, 255], 'bid': 0.9}, {'imgObject': {}, 'id': 'raspberries', 'src': '/static/foodstim60/raspberries.jpg', 'key': 'i', 'origWidth': 411, 'origHeight': 411, 'width': 411, 'height': 411, 'widthPercent': 0.45, 'rescaleHeight': False, 'trialN': 89, 'loaded': True, 'loadedTime': 3628.4000000953674, 'positionName': 'RIGHT', 'positionCoords': [764.4, 254.5], 'bid': 3.53}]",169665.10000002384,1669829403169,cheerios,raspberries,0.9,3.53,2.63,cheerios,1883.6000000238419,1888,1887.8999999761581,True,u,172053.40000009537,2388.3000000715256,1669829405557,2388,HRV,HRV_0008,2022-11-30 17:32:36
90,"[{'imgObject': {}, 'id': 'avocado', 'src': '/static/foodstim60/avocado.jpg', 'key': 'u', 'origWidth': 409, 'origHeight': 409, 'width': 409, 'height': 409, 'widthPercent': 0.45, 'rescaleHeight': False, 'trialN': 90, 'loaded': True, 'loadedTime': 3578.5, 'positionName': 'LEFT', 'positionCoords': [296.6, 255.5], 'bid': 1.34}, {'imgObject': {}, 'id': 'cantaloupe', 'src': '/static/foodstim60/cantaloupe.jpg', 'key': 'i', 'origWidth': 409, 'origHeight': 409, 'width': 409, 'height': 409, 'widthPercent': 0.45, 'rescaleHeight': False, 'trialN': 90, 'loaded': True, 'loadedTime': 3605.100000023842, 'positionName': 'RIGHT', 'positionCoords': [764.4, 255.5], 'bid': 1.7}]",175018.60000002384,1669829408522,avocado,cantaloupe,1.34,1.7,0.3599999999999999,cantaloupe,1644.3000000715256,1648,1647.6000000238419,True,i,177166.40000009537,2147.8000000715256,1669829410670,2148,HRV,HRV_0008,2022-11-30 17:32:36
91,"[{'imgObject': {}, 'id': 'tacos', 'src': '/static/foodstim60/tacos.jpg', 'key': 'u', 'origWidth': 411, 'origHeight': 411, 'width': 411, 'height': 411, 'widthPercent': 0.45, 'rescaleHeight': False, 'trialN': 91, 'loaded': True, 'loadedTime': 3566.2000000476837, 'positionName': 'LEFT', 'positionCoords': [294.6, 254.5], 'bid': 8.17}, {'imgObject': {}, 'id': 'lox', 'src': '/static/foodstim60/lox.jpg', 'key': 'i', 'origWidth': 410, 'origHeight': 411, 'width': 410, 'height': 411, 'widthPercent': 0.45, 'rescaleHeight': False, 'trialN': 91, 'loaded': True, 'loadedTime': 3678.7000000476837, 'positionName': 'RIGHT', 'positionCoords': [764.4, 254.5], 'bid': 8.11}]",177166.70000004768,1669829410670,tacos,lox,8.17,8.11,-0.0600000000000005,lox,1200.1000000238419,1204,1203.2999999523163,True,i,178870.30000007153,1703.6000000238419,1669829412374,1704,HRV,HRV_0008,2022-11-30 17:32:36
92,"[{'imgObject': {}, 'id': 'Grapes', 'src': '/static/foodstim60/Grapes.jpg', 'key': 'u', 'origWidth': 411, 'origHeight': 411, 'width': 411, 'height': 411, 'widthPercent': 0.45, 'rescaleHeight': False, 'trialN': 92, 'loaded': True, 'loadedTime': 3650.8000000715256, 'positionName': 'LEFT', 'positionCoords': [294.6, 254.5], 'bid': 2.34}, {'imgObject': {}, 'id': 'cheerios', 'src': '/static/foodstim60/cheerios.jpg', 'key': 'i', 'origWidth': 409, 'origHeight': 410, 'width': 409, 'height': 410, 'widthPercent': 0.45, 'rescaleHeight': False, 'trialN': 92, 'loaded': True, 'loadedTime': 3356.8000000715256, 'positionName': 'RIGHT', 'positionCoords': [764.4, 255], 'bid': 0.9}]",178870.5,1669829412374,Grapes,cheerios,2.34,0.9,-1.44,Grapes,946.1000000238419,950,950.1000000238419,True,u,180321.30000007153,1450.8000000715256,1669829413825,1451,HRV,HRV_0008,2022-11-30 17:32:36
93,"[{'imgObject': {}, 'id': 'turkey sandwich', 'src': '/static/foodstim60/turkey sandwich.jpg', 'key': 'u', 'origWidth': 409, 'origHeight': 409, 'width': 409, 'height': 409, 'widthPercent': 0.45, 'rescaleHeight': False, 'trialN': 93, 'loaded': True, 'loadedTime': 3697.9000000953674, 'positionName': 'LEFT', 'positionCoords': [296.6, 255.5], 'bid': 9.06}, {'imgObject': {}, 'id': 'sushi w_condiments', 'src': '/static/foodstim60/sushi w_condiments.jpg', 'key': 'i', 'origWidth': 410, 'origHeight': 410, 'width': 410, 'height': 410, 'widthPercent': 0.45, 'rescaleHeight': False, 'trialN': 93, 'loaded': True, 'loadedTime': 3609.9000000953674, 'positionName': 'RIGHT', 'positionCoords': [764.4, 255], 'bid': 9.87}]",180321.5,1669829413825,turkey sandwich,sushi w_condiments,9.06,9.87,0.8099999999999987,sushi w_condiments,973.9000000953674,978,978.2000000476837,True,i,181800.0,1478.5,1669829415304,1479,HRV,HRV_0008,2022-11-30 17:32:36
94,"[{'imgObject': {}, 'id': 'eggsalad', 'src': '/static/foodstim60/eggsalad.jpg', 'key': 'u', 'origWidth': 410, 'origHeight': 409, 'width': 410, 'height': 409, 'widthPercent': 0.45, 'rescaleHeight': False, 'trialN': 94, 'loaded': True, 'loadedTime': 3593.8000000715256, 'positionName': 'LEFT', 'positionCoords': [295.6, 255.5], 'bid': 7.72}, {'imgObject': {}, 'id': 'ice cream sundae 002', 'src': '/static/foodstim60/ice cream sundae 002.jpg', 'key': 'i', 'origWidth': 409, 'origHeight': 409, 'width': 409, 'height': 409, 'widthPercent': 0.45, 'rescaleHeight': False, 'trialN': 94, 'loaded': True, 'loadedTime': 3357.2000000476837, 'positionName': 'RIGHT', 'positionCoords': [764.4, 255.5], 'bid': 6}]",181800.30000007153,1669829415304,eggsalad,ice cream sundae 002,7.72,6.0,-1.7199999999999998,ice cream sundae 002,920.2999999523163,924,924.6000000238419,True,i,183225.60000002384,1425.2999999523163,1669829416729,1425,HRV,HRV_0008,2022-11-30 17:32:36
95,"[{'imgObject': {}, 'id': 'shreddedwheatwithmilk', 'src': '/static/foodstim60/shreddedwheatwithmilk.jpg', 'key': 'u', 'origWidth': 410, 'origHeight': 410, 'width': 410, 'height': 410, 'widthPercent': 0.45, 'rescaleHeight': False, 'trialN': 95, 'loaded': True, 'loadedTime': 3376.8000000715256, 'positionName': 'LEFT', 'positionCoords': [295.6, 255], 'bid': 3.38}, {'imgObject': {}, 'id': 'fried eggs', 'src': '/static/foodstim60/fried eggs.jpg', 'key': 'i', 'origWidth': 410, 'origHeight': 410, 'width': 410, 'height': 410, 'widthPercent': 0.45, 'rescaleHeight': False, 'trialN': 95, 'loaded': True, 'loadedTime': 3695.7000000476837, 'positionName': 'RIGHT', 'positionCoords': [764.4, 255], 'bid': 8.67}]",183225.90000009537,1669829416729,shreddedwheatwithmilk,fried eggs,3.38,8.67,5.29,fried eggs,710.5999999046326,715,714.8999999761581,True,i,184441.20000004768,1215.2999999523163,1669829417945,1216,HRV,HRV_0008,2022-11-30 17:32:36
96,"[{'imgObject': {}, 'id': 'bagel plain', 'src': '/static/foodstim60/bagel plain.jpg', 'key': 'u', 'origWidth': 410, 'origHeight': 410, 'width': 410, 'height': 410, 'widthPercent': 0.45, 'rescaleHeight': False, 'trialN': 96, 'loaded': True, 'loadedTime': 3710.2000000476837, 'positionName': 'LEFT', 'positionCoords': [295.6, 255], 'bid': 8.6}, {'imgObject': {}, 'id': 'edamame', 'src': '/static/foodstim60/edamame.jpg', 'key': 'i', 'origWidth': 409, 'origHeight': 410, 'width': 409, 'height': 410, 'widthPercent': 0.45, 'rescaleHeight': False, 'trialN': 96, 'loaded': True, 'loadedTime': 3444.2000000476837, 'positionName': 'RIGHT', 'positionCoords': [764.4, 255], 'bid': 6.4}]",184441.5,1669829417945,bagel plain,edamame,8.6,6.4,-2.1999999999999993,bagel plain,971.6000000238419,977,976.7000000476837,True,u,185918.80000007153,1477.3000000715256,1669829419422,1477,HRV,HRV_0008,2022-11-30 17:32:36
97,"[{'imgObject': {}, 'id': 'roastedpotatoes', 'src': '/static/foodstim60/roastedpotatoes.jpg', 'key': 'u', 'origWidth': 409, 'origHeight': 410, 'width': 409, 'height': 410, 'widthPercent': 0.45, 'rescaleHeight': False, 'trialN': 97, 'loaded': True, 'loadedTime': 3677.5, 'positionName': 'LEFT', 'positionCoords': [296.6, 255], 'bid': 7.61}, {'imgObject': {}, 'id': 'eggsalad', 'src': '/static/foodstim60/eggsalad.jpg', 'key': 'i', 'origWidth': 410, 'origHeight': 409, 'width': 410, 'height': 409, 'widthPercent': 0.45, 'rescaleHeight': False, 'trialN': 97, 'loaded': True, 'loadedTime': 3593.600000023842, 'positionName': 'RIGHT', 'positionCoords': [764.4, 255.5], 'bid': 7.72}]",185919.0,1669829419423,roastedpotatoes,eggsalad,7.61,7.72,0.10999999999999943,roastedpotatoes,1271.3000000715256,1275,1275.7000000476837,True,u,187695.20000004768,1776.2000000476837,1669829421199,1776,HRV,HRV_0008,2022-11-30 17:32:36
98,"[{'imgObject': {}, 'id': 'fruitsalad', 'src': '/static/foodstim60/fruitsalad.jpg', 'key': 'u', 'origWidth': 410, 'origHeight': 410, 'width': 410, 'height': 410, 'widthPercent': 0.45, 'rescaleHeight': False, 'trialN': 98, 'loaded': True, 'loadedTime': 3679.8000000715256, 'positionName': 'LEFT', 'positionCoords': [295.6, 255], 'bid': 1.65}, {'imgObject': {}, 'id': 'froot loops w milk', 'src': '/static/foodstim60/froot loops w milk.jpg', 'key': 'i', 'origWidth': 410, 'origHeight': 410, 'width': 410, 'height': 410, 'widthPercent': 0.45, 'rescaleHeight': False, 'trialN': 98, 'loaded': True, 'loadedTime': 3628.8000000715256, 'positionName': 'RIGHT', 'positionCoords': [764.4, 255], 'bid': 0.49}]",187695.20000004768,1669829421199,fruitsalad,froot loops w milk,1.65,0.49,-1.16,froot loops w milk,1464.2999999523163,1468,1468.7000000476837,True,i,189664.20000004768,1969.0,1669829423168,1969,HRV,HRV_0008,2022-11-30 17:32:36
99,"[{'imgObject': {}, 'id': 'turkey sandwich', 'src': '/static/foodstim60/turkey sandwich.jpg', 'key': 'u', 'origWidth': 409, 'origHeight': 409, 'width': 409, 'height': 409, 'widthPercent': 0.45, 'rescaleHeight': False, 'trialN': 99, 'loaded': True, 'loadedTime': 3697.9000000953674, 'positionName': 'LEFT', 'positionCoords': [296.6, 255.5], 'bid': 9.06}, {'imgObject': {}, 'id': 'bagel plain', 'src': '/static/foodstim60/bagel plain.jpg', 'key': 'i', 'origWidth': 410, 'origHeight': 410, 'width': 410, 'height': 410, 'widthPercent': 0.45, 'rescaleHeight': False, 'trialN': 99, 'loaded': True, 'loadedTime': 3710.2000000476837, 'positionName': 'RIGHT', 'positionCoords': [764.4, 255], 'bid': 8.6}]",189664.5,1669829423168,turkey sandwich,bagel plain,9.06,8.6,-0.46000000000000085,turkey sandwich,1122.7000000476837,1127,1127.3000000715256,True,u,191292.10000002384,1627.6000000238419,1669829424796,1628,HRV,HRV_0008,2022-11-30 17:32:36
100,"[{'imgObject': {}, 'id': 'rigatoni and sauce', 'src': '/static/foodstim60/rigatoni and sauce.jpg', 'key': 'u', 'origWidth': 410, 'origHeight': 411, 'width': 410, 'height': 411, 'widthPercent': 0.45, 'rescaleHeight': False, 'trialN': 100, 'loaded': True, 'loadedTime': 3544.5, 'positionName': 'LEFT', 'positionCoords': [295.6, 254.5], 'bid': 8.23}, {'imgObject': {}, 'id': 'turkey sandwich', 'src': '/static/foodstim60/turkey sandwich.jpg', 'key': 'i', 'origWidth': 409, 'origHeight': 409, 'width': 409, 'height': 409, 'widthPercent': 0.45, 'rescaleHeight': False, 'trialN': 100, 'loaded': True, 'loadedTime': 3697.9000000953674, 'positionName': 'RIGHT', 'positionCoords': [764.4, 255.5], 'bid': 9.06}]",191292.20000004768,1669829424796,rigatoni and sauce,turkey sandwich,8.23,9.06,0.8300000000000001,turkey sandwich,682.2999999523163,686,686.7000000476837,True,i,192479.10000002384,1186.8999999761581,1669829425983,1187,HRV,HRV_0008,2022-11-30 17:32:36
101,"[{'imgObject': {}, 'id': 'Grapes', 'src': '/static/foodstim60/Grapes.jpg', 'key': 'u', 'origWidth': 411, 'origHeight': 411, 'width': 411, 'height': 411, 'widthPercent': 0.45, 'rescaleHeight': False, 'trialN': 101, 'loaded': True, 'loadedTime': 3650.8000000715256, 'positionName': 'LEFT', 'positionCoords': [294.6, 254.5], 'bid': 2.34}, {'imgObject': {}, 'id': 'granola w milk', 'src': '/static/foodstim60/granola w milk.jpg', 'key': 'i', 'origWidth': 410, 'origHeight': 410, 'width': 410, 'height': 410, 'widthPercent': 0.45, 'rescaleHeight': False, 'trialN': 101, 'loaded': True, 'loadedTime': 3562.9000000953674, 'positionName': 'RIGHT', 'positionCoords': [764.4, 255], 'bid': 3.5700000000000003}]",192479.40000009537,1669829425983,Grapes,granola w milk,2.34,3.5700000000000003,1.2300000000000004,Grapes,1202.7999999523163,1207,1207.0999999046326,True,u,194186.80000007153,1707.3999999761581,1669829427690,1707,HRV,HRV_0008,2022-11-30 17:32:36
102,"[{'imgObject': {}, 'id': 'ice cream sundae 002', 'src': '/static/foodstim60/ice cream sundae 002.jpg', 'key': 'u', 'origWidth': 409, 'origHeight': 409, 'width': 409, 'height': 409, 'widthPercent': 0.45, 'rescaleHeight': False, 'trialN': 102, 'loaded': True, 'loadedTime': 3359.2000000476837, 'positionName': 'LEFT', 'positionCoords': [296.6, 255.5], 'bid': 6}, {'imgObject': {}, 'id': 'baked potato', 'src': '/static/foodstim60/baked potato.jpg', 'key': 'i', 'origWidth': 409, 'origHeight': 410, 'width': 409, 'height': 410, 'widthPercent': 0.45, 'rescaleHeight': False, 'trialN': 102, 'loaded': True, 'loadedTime': 3678.600000023842, 'positionName': 'RIGHT', 'positionCoords': [764.4, 255], 'bid': 5.91}]",194187.10000002384,1669829427691,ice cream sundae 002,baked potato,6.0,5.91,-0.08999999999999986,baked potato,1178.2000000476837,1182,1182.8000000715256,True,i,195870.20000004768,1683.1000000238419,1669829429374,1683,HRV,HRV_0008,2022-11-30 17:32:36
103,"[{'imgObject': {}, 'id': 'veggieswithdip', 'src': '/static/foodstim60/veggieswithdip.jpg', 'key': 'u', 'origWidth': 409, 'origHeight': 409, 'width': 409, 'height': 409, 'widthPercent': 0.45, 'rescaleHeight': False, 'trialN': 103, 'loaded': True, 'loadedTime': 3545.100000023842, 'positionName': 'LEFT', 'positionCoords': [296.6, 255.5], 'bid': 6.7}, {'imgObject': {}, 'id': 'edamame', 'src': '/static/foodstim60/edamame.jpg', 'key': 'i', 'origWidth': 409, 'origHeight': 410, 'width': 409, 'height': 410, 'widthPercent': 0.45, 'rescaleHeight': False, 'trialN': 103, 'loaded': True, 'loadedTime': 3444.2000000476837, 'positionName': 'RIGHT', 'positionCoords': [764.4, 255], 'bid': 6.4}]",195870.40000009537,1669829429374,veggieswithdip,edamame,6.7,6.4,-0.2999999999999998,veggieswithdip,1027.6999999284744,1033,1033.3999999761581,True,u,197404.0,1533.5999999046326,1669829430908,1534,HRV,HRV_0008,2022-11-30 17:32:36
104,"[{'imgObject': {}, 'id': 'hashbrowns', 'src': '/static/foodstim60/hashbrowns.jpg', 'key': 'u', 'origWidth': 411, 'origHeight': 410, 'width': 411, 'height': 410, 'widthPercent': 0.45, 'rescaleHeight': False, 'trialN': 104, 'loaded': True, 'loadedTime': 3400.3000000715256, 'positionName': 'LEFT', 'positionCoords': [294.6, 255], 'bid': 1.95}, {'imgObject': {}, 'id': 'hotdog w must', 'src': '/static/foodstim60/hotdog w must.jpg', 'key': 'i', 'origWidth': 409, 'origHeight': 409, 'width': 409, 'height': 409, 'widthPercent': 0.45, 'rescaleHeight': False, 'trialN': 104, 'loaded': True, 'loadedTime': 3649.4000000953674, 'positionName': 'RIGHT', 'positionCoords': [764.4, 255.5], 'bid': 8.38}]",197404.20000004768,1669829430908,hashbrowns,hotdog w must,1.95,8.38,6.430000000000001,hotdog w must,1045.7000000476837,1049,1049.0,True,i,198953.40000009537,1549.2000000476837,1669829432457,1549,HRV,HRV_0008,2022-11-30 17:32:36
105,"[{'imgObject': {}, 'id': 'strawberries', 'src': '/static/foodstim60/strawberries.jpg', 'key': 'u', 'origWidth': 410, 'origHeight': 410, 'width': 410, 'height': 410, 'widthPercent': 0.45, 'rescaleHeight': False, 'trialN': 105, 'loaded': True, 'loadedTime': 3460, 'positionName': 'LEFT', 'positionCoords': [295.6, 255], 'bid': 3.69}, {'imgObject': {}, 'id': 'raspberries', 'src': '/static/foodstim60/raspberries.jpg', 'key': 'i', 'origWidth': 411, 'origHeight': 411, 'width': 411, 'height': 411, 'widthPercent': 0.45, 'rescaleHeight': False, 'trialN': 105, 'loaded': True, 'loadedTime': 3628.3000000715256, 'positionName': 'RIGHT', 'positionCoords': [764.4, 254.5], 'bid': 3.53}]",198953.70000004768,1669829432457,strawberries,raspberries,3.69,3.53,-0.16000000000000014,raspberries,1144.3999999761581,1149,1149.2000000476837,True,i,200603.20000004768,1649.5,1669829434107,1650,HRV,HRV_0008,2022-11-30 17:32:36
106,"[{'imgObject': {}, 'id': 'blackbeanswithrice', 'src': '/static/foodstim60/blackbeanswithrice.jpg', 'key': 'u', 'origWidth': 410, 'origHeight': 410, 'width': 410, 'height': 410, 'widthPercent': 0.45, 'rescaleHeight': False, 'trialN': 106, 'loaded': True, 'loadedTime': 3695.2000000476837, 'positionName': 'LEFT', 'positionCoords': [295.6, 255], 'bid': 3.1}, {'imgObject': {}, 'id': 'bagel plain', 'src': '/static/foodstim60/bagel plain.jpg', 'key': 'i', 'origWidth': 410, 'origHeight': 410, 'width': 410, 'height': 410, 'widthPercent': 0.45, 'rescaleHeight': False, 'trialN': 106, 'loaded': True, 'loadedTime': 3710.100000023842, 'positionName': 'RIGHT', 'positionCoords': [764.4, 255], 'bid': 8.6}]",200603.5,1669829434107,blackbeanswithrice,bagel plain,3.1,8.6,5.5,bagel plain,1051.2000000476837,1054,1053.9000000953674,True,i,202157.70000004768,1554.2000000476837,1669829435661,1554,HRV,HRV_0008,2022-11-30 17:32:36
107,"[{'imgObject': {}, 'id': 'bagel plain', 'src': '/static/foodstim60/bagel plain.jpg', 'key': 'u', 'origWidth': 410, 'origHeight': 410, 'width': 410, 'height': 410, 'widthPercent': 0.45, 'rescaleHeight': False, 'trialN': 107, 'loaded': True, 'loadedTime': 3710.2000000476837, 'positionName': 'LEFT', 'positionCoords': [295.6, 255], 'bid': 8.6}, {'imgObject': {}, 'id': 'tacos', 'src': '/static/foodstim60/tacos.jpg', 'key': 'i', 'origWidth': 411, 'origHeight': 411, 'width': 411, 'height': 411, 'widthPercent': 0.45, 'rescaleHeight': False, 'trialN': 107, 'loaded': True, 'loadedTime': 3567.100000023842, 'positionName': 'RIGHT', 'positionCoords': [764.4, 254.5], 'bid': 8.17}]",202158.0,1669829435661,bagel plain,tacos,8.6,8.17,-0.4299999999999997,tacos,998.1000000238419,1003,1002.4000000953674,True,i,203660.60000002384,1502.6000000238419,1669829437164,1503,HRV,HRV_0008,2022-11-30 17:32:36
108,"[{'imgObject': {}, 'id': 'baked potato', 'src': '/static/foodstim60/baked potato.jpg', 'key': 'u', 'origWidth': 409, 'origHeight': 410, 'width': 409, 'height': 410, 'widthPercent': 0.45, 'rescaleHeight': False, 'trialN': 108, 'loaded': True, 'loadedTime': 3678.100000023842, 'positionName': 'LEFT', 'positionCoords': [296.6, 255], 'bid': 5.91}, {'imgObject': {}, 'id': 'burger', 'src': '/static/foodstim60/burger.jpg', 'key': 'i', 'origWidth': 409, 'origHeight': 409, 'width': 409, 'height': 409, 'widthPercent': 0.45, 'rescaleHeight': False, 'trialN': 108, 'loaded': True, 'loadedTime': 3696.3000000715256, 'positionName': 'RIGHT', 'positionCoords': [764.4, 255.5], 'bid': 9.31}]",203660.80000007153,1669829437164,baked potato,burger,5.91,9.31,3.4000000000000004,burger,929.1999999284744,933,933.0,True,i,205094.0,1433.1999999284744,1669829438597,1433,HRV,HRV_0008,2022-11-30 17:32:36
