success,trial_type,trial_index,time_elapsed,internal_node_id,Block,TrialNumber,TrialTime,trialTimeDiff,FPS_avg,FPS_med,FPS_mode,TrialDur,winResizeTime,rt,block,button_pressed,MotCoh,MotDir,ColCoh,Color,ChoiceKey,Choice,Accuracy,RT,nFrames,FPS,PPD,missTrial,missTrialMsg,onsetDelay,fullScreenExitTime,canvCenter,TrialType,Score,BlockTrial,stimulus,button_labels,exp,subjectId,date
True,fullscreen,0,3058,0.0-0.0,0.0,1.0,,,,,,,,,,,,,,,,,,,,,,,,,,,,,,,,HRV,HRV_0008,2022-11-30 17:56:18
,wl-check-fps,1,8057,0.0-1.0,0.0,2.0,"[3303.2, 3315, 3331.6, 3347.2, 3365.3, 3382, 3397.6, 3415.1, 3432, 3448.8, 3467.5, 3482, 3497.7, 3515.4, 3532, 3548.6, 3564.3, 3582.2, 3598.8, 3614.5, 3632.6, 3648.3, 3665, 3680.8, 3697.8, 3715.1, 3731.7, 3748.2, 3765, 3781.5, 3798, 3814.3, 3832, 3847.6, 3864.3, 3882.2, 3898.7, 3915.1, 3931.7, 3948.9, 3965.2, 3981.9, 3998.4, 4014.8, 4032.2, 4048.1, 4065.3, 4082.1, 4098.2, 4115.1, 4130.8, 4147.3, 4164.7, 4182.2, 4198, 4215.7, 4232.5, 4248.4, 4265.7, 4282.3, 4298.9, 4314.7, 4332.2, 4348.7, 4365.3, 4381.7, 4398.6, 4415.1, 4431.6, 4447.9, 4464.8, 4480.6, 4497.9, 4515.2, 4531.8, 4548.2, 4564.5, 4582.2, 4597.9, 4615.3, 4631.7, 4648.4, 4664.8, 4682.3, 4698, 4715, 4731.6, 4747.2, 4765.7, 4783.5, 4798.4, 4815, 4832.2, 4848.4, 4864.4, 4881.9, 4897.5, 4915.5, 4932.2, 4948.5, 4964.5, 4981.5, 4998.7, 5014.4, 5031.9, 5048.8, 5064.9, 5081.7, 5099, 5115.6, 5132, 5148.4, 5164, 5181.2, 5197.9, 5214.6, 5231.9, 5248.3, 5265.9, 5281.2, 5297.3, 5315.3, 5332.2, 5347.9, 5364.5, 5380.6, 5398, 5415.6, 5431.4, 5448.8, 5464.5, 5482.1, 5498.2, 5515.1, 5531.5, 5547.3, 5565, 5581.6, 5599, 5615.5, 5631.3, 5647.9, 5665.1, 5681.6, 5698.5, 5715.3, 5732, 5747.4, 5764.8, 5781.1, 5798.2, 5815.2, 5831.9, 5848.8, 5865.4, 5881.1, 5898.2, 5914.9, 5931.4, 5948.1, 5965.4, 5981.8, 5998, 6015.1, 6031.6, 6049.1, 6065.2, 6081.2, 6098.7, 6115.7, 6132.2, 6149, 6164.9, 6181.7, 6198.4, 6215, 6231.2, 6248.9, 6265.3, 6281.3, 6299, 6315.2, 6331.7, 6347.7, 6365.4, 6382.3, 6398.3, 6414.5, 6431.7, 6447.9, 6465, 6481.5, 6498.7, 6514.5, 6532.1, 6548.5, 6565, 6581.5, 6597.9, 6615.3, 6631.1, 6648.3, 6664.9, 6681.1, 6698.3, 6714.8, 6732.2, 6748.9, 6765.5, 6780.8, 6797.7, 6814.3, 6832.2, 6847.1, 6864.9, 6881.1, 6898, 6914.9, 6931.5, 6948.6, 6965.1, 6981.8, 6998, 7014.8, 7031.2, 7048.8, 7064.7, 7081.4, 7098.5, 7114.6, 7131, 7148.3, 7165, 7181.1, 7199, 7215.2, 7231.2, 7247.9, 7264.7, 7281.1, 7298.1, 7315.2, 7331.5, 7347.9, 7364.5, 7382.2, 7398.3, 7414.4, 7431.6, 7447.9, 7465.2, 7482, 7497.8, 7515.5, 7531.4, 7548.5, 7564.9, 7581.2, 7598.4, 7614.3, 7630.5, 7649.1, 7665.4, 7681.6, 7698.3, 7715, 7731.6, 7748.1, 7765.2, 7781.1, 7798.4, 7814.9, 7831.4, 7848, 7864.4, 7882, 7898.4, 7913.9, 7930.7, 7948.9, 7965.5, 7982.1, 7997.7, 8015, 8031.6, 8048.6, 8064.8, 8081.4, 8098.7, 8114.2, 8132.1, 8147.7, 8165.2, 8182.2, 8198.3, 8215.4, 8232.1, 8247.2, 8265.6, 8281.8]","[0.9, 11.8, 16.6, 15.6, 18.1, 16.7, 15.6, 17.5, 16.9, 16.8, 18.7, 14.5, 15.7, 17.7, 16.6, 16.6, 15.7, 17.9, 16.6, 15.7, 18.1, 15.7, 16.7, 15.8, 17, 17.3, 16.6, 16.5, 16.8, 16.5, 16.5, 16.3, 17.7, 15.6, 16.7, 17.9, 16.5, 16.4, 16.6, 17.2, 16.3, 16.7, 16.5, 16.4, 17.4, 15.9, 17.2, 16.8, 16.1, 16.9, 15.7, 16.5, 17.4, 17.5, 15.8, 17.7, 16.8, 15.9, 17.3, 16.6, 16.6, 15.8, 17.5, 16.5, 16.6, 16.4, 16.9, 16.5, 16.5, 16.3, 16.9, 15.8, 17.3, 17.3, 16.6, 16.4, 16.3, 17.7, 15.7, 17.4, 16.4, 16.7, 16.4, 17.5, 15.7, 17, 16.6, 15.6, 18.5, 17.8, 14.9, 16.6, 17.2, 16.2, 16, 17.5, 15.6, 18, 16.7, 16.3, 16, 17, 17.2, 15.7, 17.5, 16.9, 16.1, 16.8, 17.3, 16.6, 16.4, 16.4, 15.6, 17.2, 16.7, 16.7, 17.3, 16.4, 17.6, 15.3, 16.1, 18, 16.9, 15.7, 16.6, 16.1, 17.4, 17.6, 15.8, 17.4, 15.7, 17.6, 16.1, 16.9, 16.4, 15.8, 17.7, 16.6, 17.4, 16.5, 15.8, 16.6, 17.2, 16.5, 16.9, 16.8, 16.7, 15.4, 17.4, 16.3, 17.1, 17, 16.7, 16.9, 16.6, 15.7, 17.1, 16.7, 16.5, 16.7, 17.3, 16.4, 16.2, 17.1, 16.5, 17.5, 16.1, 16, 17.5, 17, 16.5, 16.8, 15.9, 16.8, 16.7, 16.6, 16.2, 17.7, 16.4, 16, 17.7, 16.2, 16.5, 16, 17.7, 16.9, 16, 16.2, 17.2, 16.2, 17.1, 16.5, 17.2, 15.8, 17.6, 16.4, 16.5, 16.5, 16.4, 17.4, 15.8, 17.2, 16.6, 16.2, 17.2, 16.5, 17.4, 16.7, 16.6, 15.3, 16.9, 16.6, 17.9, 14.9, 17.8, 16.2, 16.9, 16.9, 16.6, 17.1, 16.5, 16.7, 16.2, 16.8, 16.4, 17.6, 15.9, 16.7, 17.1, 16.1, 16.4, 17.3, 16.7, 16.1, 17.9, 16.2, 16, 16.7, 16.8, 16.4, 17, 17.1, 16.3, 16.4, 16.6, 17.7, 16.1, 16.1, 17.2, 16.3, 17.3, 16.8, 15.8, 17.7, 15.9, 17.1, 16.4, 16.3, 17.2, 15.9, 16.2, 18.6, 16.3, 16.2, 16.7, 16.7, 16.6, 16.5, 17.1, 15.9, 17.3, 16.5, 16.5, 16.6, 16.4, 17.6, 16.4, 15.5, 16.8, 18.2, 16.6, 16.6, 15.6, 17.3, 16.6, 17, 16.2, 16.6, 17.3, 15.5, 17.9, 15.6, 17.5, 17, 16.1, 17.1, 16.7, 15.1, 18.4, 16.2]",60.0,60.0,60.0,4995.5,[],,,,,,,,,,,,,,,,,,,,,,,,,HRV,HRV_0008,2022-11-30 17:56:18
,wl-html-keyboard-response,2,23201,0.0-2.0-0.0,0.0,3.0,,,,,,,,13137.600000023842,0.0,0,,,,,,,,,,,,,,,,,,,,,,HRV,HRV_0008,2022-11-30 17:56:18
,wl-rdm,3,29806,0.0-3.0-0.0,0.0,4.0,,,,,,,[],,,,0.0,0.0,87.9,0.0,u,0.0,True,1013.3999999761581,61.0,60.0,40.0,False,,3000.0,[],"[735, 460]",ColorTask_Demo,,,,,HRV,HRV_0008,2022-11-30 17:56:18
,wl-rdm,4,34439,0.0-3.0-1.0,0.0,5.0,,,,,,,[],,,,0.0,0.0,87.9,1.0,i,1.0,True,549.2999999523163,33.0,60.0,40.0,False,,2000.0,[],"[735, 460]",ColorTask_Demo,,,,,HRV,HRV_0008,2022-11-30 17:56:18
,wl-html-keyboard-response,5,40198,0.0-3.0-2.0,0.0,6.0,,,,,,,,3755.3000000715256,0.0,1,,,,,,,,,,,,,,,,,,,,,,HRV,HRV_0008,2022-11-30 17:56:18
,wl-html-keyboard-response,6,48654,0.0-4.0-0.0,0.0,7.0,,,,,,,,6451.200000047684,0.0,0,,,,,,,,,,,,,,,,,,,,,,HRV,HRV_0008,2022-11-30 17:56:18
,wl-html-keyboard-response,7,66546,0.0-5.0-0.0,0.0,8.0,,,,,,,,15888.899999976158,0.0,0,,,,,,,,,,,,,,,,,,,,,,HRV,HRV_0008,2022-11-30 17:56:18
,wl-rdm,8,68671,0.0-6.0-0.0,0.0,9.0,,,,,,,[],,,,,,50.0,1.0,u,0.0,False,704.5,43.0,60.0,40.0,False,,359.7582146805313,[],"[735, 460]",ColorTask,-1.0,1.0,,,HRV,HRV_0008,2022-11-30 17:56:18
,wl-rdm,9,70839,0.0-6.1-0.1,0.0,10.0,,,,,,,[],,,,,,73.6,0.0,u,0.0,True,829.2000000476837,50.0,60.0,40.0,False,,267.1544402048264,[],"[735, 460]",ColorTask,0.0,2.0,,,HRV,HRV_0008,2022-11-30 17:56:18
,wl-rdm,10,72805,0.0-6.2-0.2,0.0,11.0,,,,,,,[],,,,,,53.2,0.0,i,1.0,False,583.1000000238419,35.0,60.0,40.0,False,,332.02294406422163,[],"[735, 460]",ColorTask,-1.0,3.0,,,HRV,HRV_0008,2022-11-30 17:56:18
,wl-rdm,11,74788,0.0-6.3-0.3,0.0,12.0,,,,,,,[],,,,,,73.6,0.0,u,0.0,True,516.6000000238419,31.0,60.0,40.0,False,,396.71673352899074,[],"[735, 460]",ColorTask,0.0,4.0,,,HRV,HRV_0008,2022-11-30 17:56:18
,wl-rdm,12,76538,0.0-6.4-0.4,0.0,13.0,,,,,,,[],,,,,,56.4,1.0,u,0.0,False,455.4999998807907,28.0,60.0,40.0,False,,223.52452031851368,[],"[735, 460]",ColorTask,-1.0,5.0,,,HRV,HRV_0008,2022-11-30 17:56:18
,wl-rdm,13,78354,0.0-6.5-0.5,0.0,14.0,,,,,,,[],,,,,,53.2,0.0,i,1.0,False,515.0999999046326,31.0,60.0,40.0,False,,222.73879352828067,[],"[735, 460]",ColorTask,-2.0,6.0,,,HRV,HRV_0008,2022-11-30 17:56:18
,wl-rdm,14,80188,0.0-6.6-0.6,0.0,15.0,,,,,,,[],,,,,,62.5,0.0,u,0.0,True,536.0,33.0,60.0,40.0,False,,220.9432204924914,[],"[735, 460]",ColorTask,-1.0,7.0,,,HRV,HRV_0008,2022-11-30 17:56:18
,wl-rdm,15,82054,0.0-6.7-0.7,0.0,16.0,,,,,,,[],,,,,,87.9,0.0,u,0.0,True,471.90000009536743,29.0,60.0,40.0,False,,312.7988415019732,[],"[735, 460]",ColorTask,0.0,8.0,,,HRV,HRV_0008,2022-11-30 17:56:18
,wl-rdm,16,83904,0.0-6.8-0.8,0.0,17.0,,,,,,,[],,,,,,62.5,1.0,u,0.0,False,477.3000000715256,29.0,60.0,40.0,False,,309.90156779993504,[],"[735, 460]",ColorTask,-1.0,9.0,,,HRV,HRV_0008,2022-11-30 17:56:18
,wl-rdm,17,85739,0.0-6.9-0.9,0.0,18.0,,,,,,,[],,,,,,87.9,0.0,i,1.0,False,536.6999999284744,33.0,60.0,40.0,False,,217.66689298140608,[],"[735, 460]",ColorTask,-2.0,10.0,,,HRV,HRV_0008,2022-11-30 17:56:18
,wl-rdm,18,87506,0.0-6.10-0.10,0.0,19.0,,,,,,,[],,,,,,50.0,0.0,u,0.0,True,432.39999997615814,26.0,60.0,40.0,False,,253.9756788744719,[],"[735, 460]",ColorTask,-1.0,11.0,,,HRV,HRV_0008,2022-11-30 17:56:18
,wl-rdm,19,89339,0.0-6.11-0.11,0.0,20.0,,,,,,,[],,,,,,53.2,0.0,u,0.0,True,516.2000000476837,31.0,60.0,40.0,False,,263.41971049603035,[],"[735, 460]",ColorTask,0.0,12.0,,,HRV,HRV_0008,2022-11-30 17:56:18
,wl-rdm,20,91171,0.0-6.12-0.12,0.0,21.0,,,,,,,[],,,,,,56.4,0.0,u,0.0,True,541.7999999523163,33.0,60.0,40.0,False,,218.73314664854715,[],"[735, 460]",ColorTask,1.0,13.0,,,HRV,HRV_0008,2022-11-30 17:56:18
,wl-rdm,21,93088,0.0-6.13-0.13,0.0,22.0,,,,,,,[],,,,,,56.4,1.0,i,1.0,True,573.0,35.0,60.0,40.0,False,,262.2266568148866,[],"[735, 460]",ColorTask,2.0,14.0,,,HRV,HRV_0008,2022-11-30 17:56:18
,wl-rdm,22,94954,0.0-6.14-0.14,0.0,23.0,,,,,,,[],,,,,,73.6,0.0,i,1.0,False,532.6000000238419,32.0,60.0,40.0,False,,256.1819673479122,[],"[735, 460]",ColorTask,1.0,15.0,,,HRV,HRV_0008,2022-11-30 17:56:18
,wl-rdm,23,96821,0.0-6.15-0.15,0.0,24.0,,,,,,,[],,,,,,53.2,1.0,u,0.0,False,422.89999997615814,26.0,60.0,40.0,False,,350.25360725785924,[],"[735, 460]",ColorTask,0.0,16.0,,,HRV,HRV_0008,2022-11-30 17:56:18
,wl-rdm,24,98655,0.0-6.16-0.16,0.0,25.0,,,,,,,[],,,,,,62.5,0.0,i,1.0,False,444.39999997615814,27.0,60.0,40.0,False,,326.53538923094027,[],"[735, 460]",ColorTask,-1.0,17.0,,,HRV,HRV_0008,2022-11-30 17:56:18
,wl-rdm,25,100521,0.0-6.17-0.17,0.0,26.0,,,,,,,[],,,,,,62.5,1.0,i,1.0,True,407.3000000715256,25.0,60.0,40.0,False,,391.94457071204675,[],"[735, 460]",ColorTask,0.0,18.0,,,HRV,HRV_0008,2022-11-30 17:56:18
,wl-rdm,26,102271,0.0-6.18-0.18,0.0,27.0,,,,,,,[],,,,,,73.6,1.0,i,1.0,True,451.0,28.0,60.0,40.0,False,,203.52344334529838,[],"[735, 460]",ColorTask,1.0,19.0,,,HRV,HRV_0008,2022-11-30 17:56:18
,wl-rdm,27,104221,0.0-6.19-0.19,0.0,28.0,,,,,,,[],,,,,,73.6,1.0,i,1.0,True,469.2999999523163,29.0,60.0,40.0,False,,388.6602107886777,[],"[735, 460]",ColorTask,2.0,20.0,,,HRV,HRV_0008,2022-11-30 17:56:18
,wl-rdm,28,106021,0.0-6.20-0.20,0.0,29.0,,,,,,,[],,,,,,53.2,1.0,u,0.0,False,513.6000000238419,31.0,60.0,40.0,False,,204.6867286475887,[],"[735, 460]",ColorTask,1.0,21.0,,,HRV,HRV_0008,2022-11-30 17:56:18
,wl-rdm,29,107788,0.0-6.21-0.21,0.0,30.0,,,,,,,[],,,,,,50.0,0.0,i,1.0,False,389.6999999284744,24.0,60.0,40.0,False,,310.61871658071635,[],"[735, 460]",ColorTask,0.0,22.0,,,HRV,HRV_0008,2022-11-30 17:56:18
,wl-rdm,30,109520,0.0-6.22-0.22,0.0,31.0,,,,,,,[],,,,,,53.2,1.0,i,1.0,True,457.6999999284744,28.0,60.0,40.0,False,,204.2711528313535,[],"[735, 460]",ColorTask,1.0,23.0,,,HRV,HRV_0008,2022-11-30 17:56:18
,wl-rdm,31,111354,0.0-6.23-0.23,0.0,32.0,,,,,,,[],,,,,,53.2,0.0,i,1.0,False,531.3999999761581,32.0,60.0,40.0,False,,227.38595179346808,[],"[735, 460]",ColorTask,0.0,24.0,,,HRV,HRV_0008,2022-11-30 17:56:18
,wl-rdm,32,113338,0.0-6.24-0.24,0.0,33.0,,,,,,,[],,,,,,87.9,1.0,i,1.0,True,521.3999999761581,32.0,60.0,40.0,False,,375.18765945245184,[],"[735, 460]",ColorTask,1.0,25.0,,,HRV,HRV_0008,2022-11-30 17:56:18
,wl-rdm,33,115221,0.0-6.25-0.25,0.0,34.0,,,,,,,[],,,,,,53.2,1.0,i,1.0,True,487.7000000476837,30.0,60.0,40.0,False,,325.68930985614315,[],"[735, 460]",ColorTask,2.0,26.0,,,HRV,HRV_0008,2022-11-30 17:56:18
,wl-rdm,34,117021,0.0-6.26-0.26,0.0,35.0,,,,,,,[],,,,,,87.9,1.0,u,0.0,False,470.10000002384186,29.0,60.0,40.0,False,,239.78692004259176,[],"[735, 460]",ColorTask,1.0,27.0,,,HRV,HRV_0008,2022-11-30 17:56:18
,wl-rdm,35,118771,0.0-6.27-0.27,0.0,36.0,,,,,,,[],,,,,,73.6,0.0,i,1.0,False,455.10000002384186,28.0,60.0,40.0,False,,203.9063358487799,[],"[735, 460]",ColorTask,0.0,28.0,,,HRV,HRV_0008,2022-11-30 17:56:18
,wl-rdm,36,120570,0.0-6.28-0.28,0.0,37.0,,,,,,,[],,,,,,56.4,1.0,u,0.0,False,514.8999999761581,31.0,60.0,40.0,False,,223.44572462281053,[],"[735, 460]",ColorTask,-1.0,29.0,,,HRV,HRV_0008,2022-11-30 17:56:18
,wl-rdm,37,122471,0.0-6.29-0.29,0.0,38.0,,,,,,,[],,,,,,87.9,1.0,i,1.0,True,454.1999999284744,28.0,60.0,40.0,False,,375.1704356304641,[],"[735, 460]",ColorTask,0.0,30.0,,,HRV,HRV_0008,2022-11-30 17:56:18
,wl-rdm,38,124287,0.0-6.30-0.30,0.0,39.0,,,,,,,[],,,,,,73.6,0.0,i,1.0,False,524.0,32.0,60.0,40.0,False,,207.66594226528343,[],"[735, 460]",ColorTask,-1.0,31.0,,,HRV,HRV_0008,2022-11-30 17:56:18
,wl-rdm,39,126088,0.0-6.31-0.31,0.0,40.0,,,,,,,[],,,,,,87.9,0.0,u,0.0,True,477.89999997615814,29.0,60.0,40.0,False,,262.4154319190044,[],"[735, 460]",ColorTask,0.0,32.0,,,HRV,HRV_0008,2022-11-30 17:56:18
,wl-rdm,40,127921,0.0-6.32-0.32,0.0,41.0,,,,,,,[],,,,,,73.6,0.0,u,0.0,True,526.8000000715256,32.0,60.0,40.0,False,,218.32638734229468,[],"[735, 460]",ColorTask,1.0,33.0,,,HRV,HRV_0008,2022-11-30 17:56:18
,wl-rdm,41,129788,0.0-6.33-0.33,0.0,42.0,,,,,,,[],,,,,,53.2,1.0,u,0.0,False,472.799999833107,29.0,60.0,40.0,False,,325.0898940167991,[],"[735, 460]",ColorTask,0.0,34.0,,,HRV,HRV_0008,2022-11-30 17:56:18
,wl-rdm,42,131654,0.0-6.34-0.34,0.0,43.0,,,,,,,[],,,,,,73.6,1.0,i,1.0,True,531.2000000476837,32.0,60.0,40.0,False,,276.6296532378843,[],"[735, 460]",ColorTask,1.0,35.0,,,HRV,HRV_0008,2022-11-30 17:56:18
,wl-rdm,43,133453,0.0-6.35-0.35,0.0,44.0,,,,,,,[],,,,,,73.6,1.0,i,1.0,True,511.40000009536743,31.0,60.0,40.0,False,,203.42005607715456,[],"[735, 460]",ColorTask,2.0,36.0,,,HRV,HRV_0008,2022-11-30 17:56:18
,wl-rdm,44,135470,0.0-6.36-0.36,0.0,45.0,,,,,,,[],,,,,,73.6,1.0,u,0.0,False,713.7000000476837,43.0,60.0,40.0,False,,237.91990169154082,[],"[735, 460]",ColorTask,1.0,37.0,,,HRV,HRV_0008,2022-11-30 17:56:18
,wl-rdm,45,137353,0.0-6.37-0.37,0.0,46.0,,,,,,,[],,,,,,56.4,1.0,i,1.0,True,608.6000000238419,37.0,60.0,40.0,False,,200.9574551351527,[],"[735, 460]",ColorTask,2.0,38.0,,,HRV,HRV_0008,2022-11-30 17:56:18
,wl-rdm,46,139421,0.0-6.38-0.38,0.0,47.0,,,,,,,[],,,,,,62.5,0.0,i,1.0,False,749.8999999761581,45.0,60.0,40.0,False,,234.37545330589563,[],"[735, 460]",ColorTask,1.0,39.0,,,HRV,HRV_0008,2022-11-30 17:56:18
,wl-rdm,47,141303,0.0-6.39-0.39,0.0,48.0,,,,,,,[],,,,,,62.5,1.0,i,1.0,True,586.9000000953674,36.0,60.0,40.0,False,,200.91508222926564,[],"[735, 460]",ColorTask,2.0,40.0,,,HRV,HRV_0008,2022-11-30 17:56:18
,wl-rdm,48,143454,0.0-6.40-0.40,0.0,49.0,,,,,,,[],,,,,,50.0,1.0,u,0.0,False,747.2000000476837,45.0,60.0,40.0,False,,318.89013879067625,[],"[735, 460]",ColorTask,1.0,41.0,,,HRV,HRV_0008,2022-11-30 17:56:18
,wl-rdm,49,145353,0.0-6.41-0.41,0.0,50.0,,,,,,,[],,,,,,87.9,0.0,u,0.0,True,571.2000000476837,35.0,60.0,40.0,False,,242.6879068189122,[],"[735, 460]",ColorTask,2.0,42.0,,,HRV,HRV_0008,2022-11-30 17:56:18
,wl-rdm,50,147287,0.0-6.42-0.42,0.0,51.0,,,,,,,[],,,,,,56.4,0.0,i,1.0,False,548.8000000715256,33.0,60.0,40.0,False,,306.41309606532184,[],"[735, 460]",ColorTask,1.0,43.0,,,HRV,HRV_0008,2022-11-30 17:56:18
,wl-rdm,51,149238,0.0-6.43-0.43,0.0,52.0,,,,,,,[],,,,,,56.4,1.0,i,1.0,True,549.6999999284744,33.0,60.0,40.0,False,,317.1466381786571,[],"[735, 460]",ColorTask,2.0,44.0,,,HRV,HRV_0008,2022-11-30 17:56:18
,wl-rdm,52,151187,0.0-6.44-0.44,0.0,53.0,,,,,,,[],,,,,,56.4,0.0,u,0.0,True,592.9000000953674,36.0,60.0,40.0,False,,277.19741346294023,[],"[735, 460]",ColorTask,3.0,45.0,,,HRV,HRV_0008,2022-11-30 17:56:18
,wl-rdm,53,153187,0.0-6.45-0.45,0.0,54.0,,,,,,,[],,,,,,56.4,0.0,i,1.0,False,642.0,39.0,60.0,40.0,False,,283.318850640557,[],"[735, 460]",ColorTask,2.0,46.0,,,HRV,HRV_0008,2022-11-30 17:56:18
,wl-rdm,54,155387,0.0-6.46-0.46,0.0,55.0,,,,,,,[],,,,,,62.5,1.0,i,1.0,True,894.0,54.0,60.0,40.0,False,,250.40509422468259,[],"[735, 460]",ColorTask,3.0,47.0,,,HRV,HRV_0008,2022-11-30 17:56:18
,wl-rdm,55,157570,0.0-6.47-0.47,0.0,56.0,,,,,,,[],,,,,,50.0,1.0,i,1.0,True,775.0,47.0,60.0,40.0,False,,317.38940276784746,[],"[735, 460]",ColorTask,4.0,48.0,,,HRV,HRV_0008,2022-11-30 17:56:18
,wl-rdm,56,159770,0.0-6.48-0.48,0.0,57.0,,,,,,,[],,,,,,73.6,0.0,u,0.0,True,816.1999999284744,49.0,60.0,40.0,False,,311.1789920725128,[],"[735, 460]",ColorTask,5.0,49.0,,,HRV,HRV_0008,2022-11-30 17:56:18
,wl-rdm,57,161836,0.0-6.49-0.49,0.0,58.0,,,,,,,[],,,,,,87.9,0.0,u,0.0,True,608.6000000238419,37.0,60.0,40.0,False,,367.83552410288416,[],"[735, 460]",ColorTask,6.0,50.0,,,HRV,HRV_0008,2022-11-30 17:56:18
,wl-rdm,58,163703,0.0-6.50-0.50,0.0,59.0,,,,,,,[],,,,,,50.0,1.0,u,0.0,False,571.6000000238419,35.0,60.0,40.0,False,,226.22810705563154,[],"[735, 460]",ColorTask,5.0,51.0,,,HRV,HRV_0008,2022-11-30 17:56:18
,wl-rdm,59,166070,0.0-6.51-0.51,0.0,60.0,,,,,,,[],,,,,,50.0,1.0,i,1.0,True,1034.9999998807907,63.0,60.0,40.0,False,,234.31807524433788,[],"[735, 460]",ColorTask,6.0,52.0,,,HRV,HRV_0008,2022-11-30 17:56:18
,wl-rdm,60,168104,0.0-6.52-0.52,0.0,61.0,,,,,,,[],,,,,,50.0,0.0,u,0.0,True,752.5,46.0,60.0,40.0,False,,211.80740372733803,[],"[735, 460]",ColorTask,7.0,53.0,,,HRV,HRV_0008,2022-11-30 17:56:18
,wl-rdm,61,170087,0.0-6.53-0.53,0.0,62.0,,,,,,,[],,,,,,53.2,0.0,i,1.0,False,660.8999999761581,40.0,60.0,40.0,False,,252.93751511132064,[],"[735, 460]",ColorTask,6.0,54.0,,,HRV,HRV_0008,2022-11-30 17:56:18
,wl-rdm,62,172221,0.0-6.54-0.54,0.0,63.0,,,,,,,[],,,,,,50.0,1.0,u,0.0,False,739.2000000476837,45.0,60.0,40.0,False,,314.7698425088593,[],"[735, 460]",ColorTask,5.0,55.0,,,HRV,HRV_0008,2022-11-30 17:56:18
,wl-rdm,63,174386,0.0-6.55-0.55,0.0,64.0,,,,,,,[],,,,,,56.4,0.0,i,1.0,False,776.1000000238419,47.0,60.0,40.0,False,,323.89506550369117,[],"[735, 460]",ColorTask,4.0,56.0,,,HRV,HRV_0008,2022-11-30 17:56:18
,wl-rdm,64,176370,0.0-6.56-0.56,0.0,65.0,,,,,,,[],,,,,,62.5,1.0,i,1.0,True,614.3000000715256,37.0,60.0,40.0,False,,303.8176696133978,[],"[735, 460]",ColorTask,5.0,57.0,,,HRV,HRV_0008,2022-11-30 17:56:18
,wl-rdm,65,178670,0.0-6.57-0.57,0.0,66.0,,,,,,,[],,,,,,53.2,0.0,i,1.0,False,860.8999999761581,52.0,60.0,40.0,False,,355.6622418414131,[],"[735, 460]",ColorTask,4.0,58.0,,,HRV,HRV_0008,2022-11-30 17:56:18
,wl-rdm,66,180920,0.0-6.58-0.58,0.0,67.0,,,,,,,[],,,,,,56.4,0.0,i,1.0,False,922.5,56.0,60.0,40.0,False,,245.70117320011715,[],"[735, 460]",ColorTask,3.0,59.0,,,HRV,HRV_0008,2022-11-30 17:56:18
,wl-rdm,67,183137,0.0-6.59-0.59,0.0,68.0,,,,,,,[],,,,,,87.9,1.0,i,1.0,True,839.8999999761581,51.0,60.0,40.0,False,,295.61920619558884,[],"[735, 460]",ColorTask,4.0,60.0,,,HRV,HRV_0008,2022-11-30 17:56:18
,wl-rdm,68,185270,0.0-6.60-0.60,0.0,69.0,,,,,,,[],,,,,,62.5,0.0,u,0.0,True,741.0,45.0,60.0,40.0,False,,301.5799618886447,[],"[735, 460]",ColorTask,5.0,61.0,,,HRV,HRV_0008,2022-11-30 17:56:18
,wl-rdm,69,187470,0.0-6.61-0.61,0.0,70.0,,,,,,,[],,,,,,73.6,1.0,i,1.0,True,830.1999999284744,50.0,60.0,40.0,False,,289.3095552573074,[],"[735, 460]",ColorTask,6.0,62.0,,,HRV,HRV_0008,2022-11-30 17:56:18
,wl-rdm,70,189687,0.0-6.62-0.62,0.0,71.0,,,,,,,[],,,,,,50.0,1.0,i,1.0,True,779.1999999284744,47.0,60.0,40.0,False,,362.0812890085398,[],"[735, 460]",ColorTask,7.0,63.0,,,HRV,HRV_0008,2022-11-30 17:56:18
,wl-rdm,71,191887,0.0-6.63-0.63,0.0,72.0,,,,,,,[],,,,,,87.9,1.0,i,1.0,True,880.3000000715256,53.0,60.0,40.0,False,,250.71645520049705,[],"[735, 460]",ColorTask,8.0,64.0,,,HRV,HRV_0008,2022-11-30 17:56:18
,wl-rdm,72,194187,0.0-6.64-0.64,0.0,73.0,,,,,,,[],,,,,,50.0,0.0,u,0.0,True,906.7000000476837,55.0,60.0,40.0,False,,324.50136217995987,[],"[735, 460]",ColorTask,9.0,65.0,,,HRV,HRV_0008,2022-11-30 17:56:18
,wl-rdm,73,196420,0.0-6.65-0.65,0.0,74.0,,,,,,,[],,,,,,62.5,1.0,i,1.0,True,889.0,54.0,60.0,40.0,False,,256.5187587833218,[],"[735, 460]",ColorTask,10.0,66.0,,,HRV,HRV_0008,2022-11-30 17:56:18
,wl-rdm,74,198553,0.0-6.66-0.66,0.0,75.0,,,,,,,[],,,,,,53.2,1.0,i,1.0,True,807.1999999284744,49.0,60.0,40.0,False,,256.64937815257827,[],"[735, 460]",ColorTask,11.0,67.0,,,HRV,HRV_0008,2022-11-30 17:56:18
,wl-rdm,75,200569,0.0-6.67-0.67,0.0,76.0,,,,,,,[],,,,,,50.0,0.0,i,1.0,False,743.1000000238419,45.0,60.0,40.0,False,,214.544169058731,[],"[735, 460]",ColorTask,10.0,68.0,,,HRV,HRV_0008,2022-11-30 17:56:18
,wl-rdm,76,202953,0.0-6.68-0.68,0.0,77.0,,,,,,,[],,,,,,53.2,0.0,i,1.0,False,984.0000001192093,60.0,60.0,40.0,False,,307.14791092548944,[],"[735, 460]",ColorTask,9.0,69.0,,,HRV,HRV_0008,2022-11-30 17:56:18
,wl-rdm,77,205103,0.0-6.69-0.69,0.0,78.0,,,,,,,[],,,,,,53.2,1.0,u,0.0,False,735.3999999761581,45.0,60.0,40.0,False,,335.99433085856543,[],"[735, 460]",ColorTask,8.0,70.0,,,HRV,HRV_0008,2022-11-30 17:56:18
,wl-rdm,78,207136,0.0-6.70-0.70,0.0,79.0,,,,,,,[],,,,,,87.9,1.0,i,1.0,True,716.0,43.0,60.0,40.0,False,,266.5004472036245,[],"[735, 460]",ColorTask,9.0,71.0,,,HRV,HRV_0008,2022-11-30 17:56:18
,wl-rdm,79,209236,0.0-6.71-0.71,0.0,80.0,,,,,,,[],,,,,,87.9,0.0,u,0.0,True,814.0,49.0,60.0,40.0,False,,212.91205454998416,[],"[735, 460]",ColorTask,10.0,72.0,,,HRV,HRV_0008,2022-11-30 17:56:18
,wl-rdm,80,211387,0.0-6.72-0.72,0.0,81.0,,,,,,,[],,,,,,87.9,0.0,u,0.0,True,705.2000000476837,43.0,60.0,40.0,False,,373.0530306386205,[],"[735, 460]",ColorTask,11.0,73.0,,,HRV,HRV_0008,2022-11-30 17:56:18
,wl-rdm,81,213486,0.0-6.73-0.73,0.0,82.0,,,,,,,[],,,,,,50.0,0.0,i,1.0,False,797.6999999284744,48.0,60.0,40.0,False,,226.06330226513487,[],"[735, 460]",ColorTask,10.0,74.0,,,HRV,HRV_0008,2022-11-30 17:56:18
,wl-rdm,82,215787,0.0-6.74-0.74,0.0,83.0,,,,,,,[],,,,,,50.0,1.0,i,1.0,True,944.1999999284744,57.0,60.0,40.0,False,,273.3609117320191,[],"[735, 460]",ColorTask,11.0,75.0,,,HRV,HRV_0008,2022-11-30 17:56:18
,wl-rdm,83,217953,0.0-6.75-0.75,0.0,84.0,,,,,,,[],,,,,,62.5,1.0,i,1.0,True,841.7000000476837,51.0,60.0,40.0,False,,253.94859713949182,[],"[735, 460]",ColorTask,12.0,76.0,,,HRV,HRV_0008,2022-11-30 17:56:18
,wl-rdm,84,220186,0.0-6.76-0.76,0.0,85.0,,,,,,,[],,,,,,73.6,0.0,u,0.0,True,789.0,48.0,60.0,40.0,False,,370.1912134742489,[],"[735, 460]",ColorTask,13.0,77.0,,,HRV,HRV_0008,2022-11-30 17:56:18
,wl-rdm,85,222286,0.0-6.77-0.77,0.0,86.0,,,,,,,[],,,,,,73.6,1.0,i,1.0,True,788.7000000476837,48.0,60.0,40.0,False,,230.13566619890395,[],"[735, 460]",ColorTask,14.0,78.0,,,HRV,HRV_0008,2022-11-30 17:56:18
,wl-rdm,86,224669,0.0-6.78-0.78,0.0,87.0,,,,,,,[],,,,,,62.5,0.0,u,0.0,True,1042.7999999523163,63.0,60.0,40.0,False,,259.4629822478584,[],"[735, 460]",ColorTask,15.0,79.0,,,HRV,HRV_0008,2022-11-30 17:56:18
,wl-rdm,87,226853,0.0-6.79-0.79,0.0,88.0,,,,,,,[],,,,,,53.2,0.0,i,1.0,False,857.7999999523163,52.0,60.0,40.0,False,,245.65690729340133,[],"[735, 460]",ColorTask,14.0,80.0,,,HRV,HRV_0008,2022-11-30 17:56:18
,wl-rdm,88,229037,0.0-6.80-0.80,0.0,89.0,,,,,,,[],,,,,,73.6,1.0,i,1.0,True,896.3000000715256,54.0,60.0,40.0,False,,214.252066494323,[],"[735, 460]",ColorTask,15.0,81.0,,,HRV,HRV_0008,2022-11-30 17:56:18
,wl-rdm,89,231337,0.0-6.81-0.81,0.0,90.0,,,,,,,[],,,,,,62.5,1.0,i,1.0,True,846.6999999284744,51.0,60.0,40.0,False,,388.14362776311134,[],"[735, 460]",ColorTask,16.0,82.0,,,HRV,HRV_0008,2022-11-30 17:56:18
,wl-rdm,90,233669,0.0-6.82-0.82,0.0,91.0,,,,,,,[],,,,,,53.2,1.0,i,1.0,True,958.8999999761581,58.0,60.0,40.0,False,,289.5125421995672,[],"[735, 460]",ColorTask,17.0,83.0,,,HRV,HRV_0008,2022-11-30 17:56:18
,wl-rdm,91,235903,0.0-6.83-0.83,0.0,92.0,,,,,,,[],,,,,,73.6,1.0,i,1.0,True,877.5,53.0,60.0,40.0,False,,299.17701467173214,[],"[735, 460]",ColorTask,18.0,84.0,,,HRV,HRV_0008,2022-11-30 17:56:18
,wl-rdm,92,238119,0.0-6.84-0.84,0.0,93.0,,,,,,,[],,,,,,87.9,1.0,i,1.0,True,876.6999999284744,53.0,60.0,40.0,False,,269.9081677440014,[],"[735, 460]",ColorTask,19.0,85.0,,,HRV,HRV_0008,2022-11-30 17:56:18
,wl-rdm,93,240436,0.0-6.85-0.85,0.0,94.0,,,,,,,[],,,,,,62.5,1.0,u,0.0,False,890.0,54.0,60.0,40.0,False,,359.46507843612244,[],"[735, 460]",ColorTask,18.0,86.0,,,HRV,HRV_0008,2022-11-30 17:56:18
,wl-rdm,94,242587,0.0-6.86-0.86,0.0,95.0,,,,,,,[],,,,,,62.5,0.0,u,0.0,True,802.5,49.0,60.0,40.0,False,,275.37027292853395,[],"[735, 460]",ColorTask,19.0,87.0,,,HRV,HRV_0008,2022-11-30 17:56:18
,wl-rdm,95,244919,0.0-6.87-0.87,0.0,96.0,,,,,,,[],,,,,,50.0,1.0,i,1.0,True,932.2999999523163,56.0,60.0,40.0,False,,335.29526787568636,[],"[735, 460]",ColorTask,20.0,88.0,,,HRV,HRV_0008,2022-11-30 17:56:18
,wl-rdm,96,247253,0.0-6.88-0.88,0.0,97.0,,,,,,,[],,,,,,56.4,1.0,i,1.0,True,959.5,58.0,60.0,40.0,False,,315.0738528122118,[],"[735, 460]",ColorTask,21.0,89.0,,,HRV,HRV_0008,2022-11-30 17:56:18
,wl-rdm,97,249386,0.0-6.89-0.89,0.0,98.0,,,,,,,[],,,,,,56.4,0.0,u,0.0,True,846.3999999761581,51.0,60.0,40.0,False,,204.1356089973156,[],"[735, 460]",ColorTask,22.0,90.0,,,HRV,HRV_0008,2022-11-30 17:56:18
,wl-rdm,98,251619,0.0-6.90-0.90,0.0,99.0,,,,,,,[],,,,,,56.4,1.0,u,0.0,False,858.2999999523163,52.0,60.0,40.0,False,,290.82786307524407,[],"[735, 460]",ColorTask,21.0,91.0,,,HRV,HRV_0008,2022-11-30 17:56:18
,wl-rdm,99,253836,0.0-6.91-0.91,0.0,100.0,,,,,,,[],,,,,,56.4,0.0,i,1.0,False,907.5999999046326,55.0,60.0,40.0,False,,239.68588485556626,[],"[735, 460]",ColorTask,20.0,92.0,,,HRV,HRV_0008,2022-11-30 17:56:18
,wl-rdm,100,255969,0.0-6.92-0.92,0.0,101.0,,,,,,,[],,,,,,62.5,0.0,u,0.0,True,863.3999999761581,52.0,60.0,40.0,False,,205.07329817029287,[],"[735, 460]",ColorTask,21.0,93.0,,,HRV,HRV_0008,2022-11-30 17:56:18
,wl-rdm,101,258252,0.0-6.93-0.93,0.0,102.0,,,,,,,[],,,,,,53.2,0.0,u,0.0,True,987.1000000238419,60.0,60.0,40.0,False,,210.74324378891168,[],"[735, 460]",ColorTask,22.0,94.0,,,HRV,HRV_0008,2022-11-30 17:56:18
,wl-rdm,102,260402,0.0-6.94-0.94,0.0,103.0,,,,,,,[],,,,,,50.0,0.0,u,0.0,True,823.8999999761581,50.0,60.0,40.0,False,,259.1099576709296,[],"[735, 460]",ColorTask,23.0,95.0,,,HRV,HRV_0008,2022-11-30 17:56:18
,wl-rdm,103,262552,0.0-6.95-0.95,0.0,104.0,,,,,,,[],,,,,,62.5,0.0,u,0.0,True,854.1000000238419,52.0,60.0,40.0,False,,219.4805484803137,[],"[735, 460]",ColorTask,24.0,96.0,,,HRV,HRV_0008,2022-11-30 17:56:18
,wl-rdm,104,264952,0.0-6.96-0.96,0.0,105.0,,,,,,,[],,,,,,53.2,1.0,i,1.0,True,974.3999999761581,59.0,60.0,40.0,False,,353.83703685092325,[],"[735, 460]",ColorTask,25.0,97.0,,,HRV,HRV_0008,2022-11-30 17:56:18
,wl-rdm,105,267135,0.0-6.97-0.97,0.0,106.0,,,,,,,[],,,,,,87.9,0.0,u,0.0,True,879.7999999523163,53.0,60.0,40.0,False,,221.48757906734306,[],"[735, 460]",ColorTask,26.0,98.0,,,HRV,HRV_0008,2022-11-30 17:56:18
,wl-rdm,106,269402,0.0-6.98-0.98,0.0,107.0,,,,,,,[],,,,,,62.5,0.0,u,0.0,True,909.7000000476837,55.0,60.0,40.0,False,,293.08593174294487,[],"[735, 460]",ColorTask,27.0,99.0,,,HRV,HRV_0008,2022-11-30 17:56:18
,wl-rdm,107,271803,0.0-6.99-0.99,0.0,108.0,,,,,,,[],,,,,,50.0,0.0,i,1.0,False,1070.1000000238419,65.0,60.0,40.0,False,,251.57565776461843,[],"[735, 460]",ColorTask,26.0,100.0,,,HRV,HRV_0008,2022-11-30 17:56:18
,wl-rdm,108,274069,0.0-6.100-0.100,0.0,109.0,,,,,,,[],,,,,,87.9,0.0,u,0.0,True,854.1000000238419,52.0,60.0,40.0,False,,339.7608542967878,[],"[735, 460]",ColorTask,27.0,101.0,,,HRV,HRV_0008,2022-11-30 17:56:18
,wl-rdm,109,276385,0.0-6.101-0.101,0.0,110.0,,,,,,,[],,,,,,56.4,0.0,u,0.0,True,945.6000000238419,57.0,60.0,40.0,False,,285.2462066402732,[],"[735, 460]",ColorTask,28.0,102.0,,,HRV,HRV_0008,2022-11-30 17:56:18
,wl-rdm,110,278635,0.0-6.102-0.102,0.0,111.0,,,,,,,[],,,,,,87.9,1.0,i,1.0,True,954.3999999761581,58.0,60.0,40.0,False,,220.92131049501114,[],"[735, 460]",ColorTask,29.0,103.0,,,HRV,HRV_0008,2022-11-30 17:56:18
,wl-rdm,111,281102,0.0-6.103-0.103,0.0,112.0,,,,,,,[],,,,,,50.0,0.0,i,1.0,False,1123.0,68.0,60.0,40.0,False,,254.23465528435491,[],"[735, 460]",ColorTask,28.0,104.0,,,HRV,HRV_0008,2022-11-30 17:56:18
,wl-rdm,112,283452,0.0-6.104-0.104,0.0,113.0,,,,,,,[],,,,,,56.4,1.0,i,1.0,True,1080.8000000715256,65.0,60.0,40.0,False,,207.51734023200217,[],"[735, 460]",ColorTask,29.0,105.0,,,HRV,HRV_0008,2022-11-30 17:56:18
,wl-rdm,113,285835,0.0-6.105-0.105,0.0,114.0,,,,,,,[],,,,,,73.6,0.0,u,0.0,True,944.0999999046326,57.0,60.0,40.0,False,,353.3081612806675,[],"[735, 460]",ColorTask,30.0,106.0,,,HRV,HRV_0008,2022-11-30 17:56:18
,wl-rdm,114,288152,0.0-6.106-0.106,0.0,115.0,,,,,,,[],,,,,,87.9,1.0,i,1.0,True,948.3999999761581,57.0,60.0,40.0,False,,288.55802494047975,[],"[735, 460]",ColorTask,31.0,107.0,,,HRV,HRV_0008,2022-11-30 17:56:18
,wl-rdm,115,290503,0.0-6.107-0.107,0.0,116.0,,,,,,,[],,,,,,56.4,1.0,u,0.0,False,993.6000000238419,60.0,60.0,40.0,False,,281.4759619841468,[],"[735, 460]",ColorTask,30.0,108.0,,,HRV,HRV_0008,2022-11-30 17:56:18
,wl-html-keyboard-response,116,305793,0.0-7.0-0.0,1.0,117.0,,,,,,,,13285.5,1.0,0,,,,,,,,,,,,,,,,,,,,,,HRV,HRV_0008,2022-11-30 17:56:18
,wl-rdm,117,308968,0.0-8.0-0.0,1.0,118.0,,,,,,,[],,,,,,73.6,1.0,i,1.0,True,1896.3000000715256,114.0,60.0,40.0,False,,206.32269011552305,[],"[735, 460]",ColorTask,31.0,1.0,,,HRV,HRV_0008,2022-11-30 17:56:18
,wl-rdm,118,311469,0.0-8.1-0.1,1.0,119.0,,,,,,,[],,,,,,62.5,0.0,u,0.0,True,1038.0,63.0,60.0,40.0,False,,395.3522608507996,[],"[735, 460]",ColorTask,32.0,2.0,,,HRV,HRV_0008,2022-11-30 17:56:18
,wl-rdm,119,314252,0.0-8.2-0.2,1.0,120.0,,,,,,,[],,,,,,62.5,1.0,i,1.0,True,1449.8999999761581,87.0,60.0,40.0,False,,265.70001527484004,[],"[735, 460]",ColorTask,33.0,3.0,,,HRV,HRV_0008,2022-11-30 17:56:18
,wl-rdm,120,316368,0.0-8.3-0.3,1.0,121.0,,,,,,,[],,,,,,56.4,0.0,u,0.0,True,798.1000000238419,48.0,60.0,40.0,False,,232.79105190634863,[],"[735, 460]",ColorTask,34.0,4.0,,,HRV,HRV_0008,2022-11-30 17:56:18
,wl-rdm,121,318569,0.0-8.4-0.4,1.0,122.0,,,,,,,[],,,,,,62.5,0.0,u,0.0,True,842.6000000238419,51.0,60.0,40.0,False,,295.6661089721002,[],"[735, 460]",ColorTask,35.0,5.0,,,HRV,HRV_0008,2022-11-30 17:56:18
,wl-rdm,122,320635,0.0-8.5-0.5,1.0,123.0,,,,,,,[],,,,,,87.9,1.0,i,1.0,True,769.1000000238419,47.0,60.0,40.0,False,,203.7904274537711,[],"[735, 460]",ColorTask,36.0,6.0,,,HRV,HRV_0008,2022-11-30 17:56:18
,wl-rdm,123,323168,0.0-8.6-0.6,1.0,124.0,,,,,,,[],,,,,,50.0,0.0,u,0.0,True,1172.1000000238419,71.0,60.0,40.0,False,,296.77437397543986,[],"[735, 460]",ColorTask,37.0,7.0,,,HRV,HRV_0008,2022-11-30 17:56:18
,wl-rdm,124,325668,0.0-8.7-0.7,1.0,125.0,,,,,,,[],,,,,,53.2,1.0,i,1.0,True,1188.2999999523163,72.0,60.0,40.0,False,,237.63718753605363,[],"[735, 460]",ColorTask,38.0,8.0,,,HRV,HRV_0008,2022-11-30 17:56:18
,wl-rdm,125,328085,0.0-8.8-0.8,1.0,126.0,,,,,,,[],,,,,,73.6,0.0,u,0.0,True,975.2000000476837,59.0,60.0,40.0,False,,363.5107044437624,[],"[735, 460]",ColorTask,39.0,9.0,,,HRV,HRV_0008,2022-11-30 17:56:18
,wl-rdm,126,330402,0.0-8.9-0.9,1.0,127.0,,,,,,,[],,,,,,73.6,1.0,i,1.0,True,922.2999999523163,56.0,60.0,40.0,False,,320.23139856366066,[],"[735, 460]",ColorTask,40.0,10.0,,,HRV,HRV_0008,2022-11-30 17:56:18
,wl-rdm,127,332985,0.0-8.10-0.10,1.0,128.0,,,,,,,[],,,,,,62.5,0.0,u,0.0,True,1139.7000000476837,69.0,60.0,40.0,False,,359.806544688392,[],"[735, 460]",ColorTask,41.0,11.0,,,HRV,HRV_0008,2022-11-30 17:56:18
,wl-rdm,128,335535,0.0-8.11-0.11,1.0,129.0,,,,,,,[],,,,,,56.4,1.0,i,1.0,True,1105.5,67.0,60.0,40.0,False,,374.46587315046304,[],"[735, 460]",ColorTask,42.0,12.0,,,HRV,HRV_0008,2022-11-30 17:56:18
,wl-rdm,129,337668,0.0-8.12-0.12,1.0,130.0,,,,,,,[],,,,,,87.9,1.0,i,1.0,True,847.8999999761581,51.0,60.0,40.0,False,,217.95384551580494,[],"[735, 460]",ColorTask,43.0,13.0,,,HRV,HRV_0008,2022-11-30 17:56:18
,wl-rdm,130,340051,0.0-8.13-0.13,1.0,131.0,,,,,,,[],,,,,,50.0,1.0,u,0.0,False,1015.5,61.0,60.0,40.0,False,,285.36714432320514,[],"[735, 460]",ColorTask,42.0,14.0,,,HRV,HRV_0008,2022-11-30 17:56:18
,wl-rdm,131,342318,0.0-8.14-0.14,1.0,132.0,,,,,,,[],,,,,,73.6,0.0,u,0.0,True,863.3999998569489,52.0,60.0,40.0,False,,348.7810448151173,[],"[735, 460]",ColorTask,43.0,15.0,,,HRV,HRV_0008,2022-11-30 17:56:18
,wl-rdm,132,344534,0.0-8.15-0.15,1.0,133.0,,,,,,,[],,,,,,62.5,1.0,i,1.0,True,886.5,54.0,60.0,40.0,False,,247.30602610234985,[],"[735, 460]",ColorTask,44.0,16.0,,,HRV,HRV_0008,2022-11-30 17:56:18
,wl-rdm,133,346769,0.0-8.16-0.16,1.0,134.0,,,,,,,[],,,,,,56.4,1.0,i,1.0,True,906.2999999523163,55.0,60.0,40.0,False,,257.0947416490499,[],"[735, 460]",ColorTask,45.0,17.0,,,HRV,HRV_0008,2022-11-30 17:56:18
,wl-rdm,134,348951,0.0-8.17-0.17,1.0,135.0,,,,,,,[],,,,,,73.6,1.0,i,1.0,True,881.2000000476837,53.0,60.0,40.0,False,,235.76814033280212,[],"[735, 460]",ColorTask,46.0,18.0,,,HRV,HRV_0008,2022-11-30 17:56:18
,wl-rdm,135,351152,0.0-8.18-0.18,1.0,136.0,,,,,,,[],,,,,,87.9,0.0,u,0.0,True,861.2999999523163,52.0,60.0,40.0,False,,256.7581505287036,[],"[735, 460]",ColorTask,47.0,19.0,,,HRV,HRV_0008,2022-11-30 17:56:18
,wl-rdm,136,353718,0.0-8.19-0.19,1.0,137.0,,,,,,,[],,,,,,62.5,1.0,i,1.0,True,1123.2000000476837,68.0,60.0,40.0,False,,361.6431033768347,[],"[735, 460]",ColorTask,48.0,20.0,,,HRV,HRV_0008,2022-11-30 17:56:18
,wl-rdm,137,356050,0.0-8.20-0.20,1.0,138.0,,,,,,,[],,,,,,50.0,1.0,i,1.0,True,967.6000000238419,59.0,60.0,40.0,False,,297.41244481303795,[],"[735, 460]",ColorTask,49.0,21.0,,,HRV,HRV_0008,2022-11-30 17:56:18
,wl-rdm,138,358268,0.0-8.21-0.21,1.0,139.0,,,,,,,[],,,,,,87.9,1.0,i,1.0,True,861.0,52.0,60.0,40.0,False,,280.0474967412813,[],"[735, 460]",ColorTask,50.0,22.0,,,HRV,HRV_0008,2022-11-30 17:56:18
,wl-rdm,139,360501,0.0-8.22-0.22,1.0,140.0,,,,,,,[],,,,,,73.6,0.0,u,0.0,True,904.5,55.0,60.0,40.0,False,,248.93416383471708,[],"[735, 460]",ColorTask,51.0,23.0,,,HRV,HRV_0008,2022-11-30 17:56:18
,wl-rdm,140,362684,0.0-8.23-0.23,1.0,141.0,,,,,,,[],,,,,,87.9,0.0,u,0.0,True,778.7000000476837,47.0,60.0,40.0,False,,322.84184891830137,[],"[735, 460]",ColorTask,52.0,24.0,,,HRV,HRV_0008,2022-11-30 17:56:18
,wl-rdm,141,365318,0.0-8.24-0.24,1.0,142.0,,,,,,,[],,,,,,50.0,1.0,u,0.0,False,1189.2000000476837,72.0,60.0,40.0,False,,379.3584974181455,[],"[735, 460]",ColorTask,51.0,25.0,,,HRV,HRV_0008,2022-11-30 17:56:18
,wl-rdm,142,367518,0.0-8.25-0.25,1.0,143.0,,,,,,,[],,,,,,53.2,0.0,u,0.0,True,867.5000001192093,52.0,60.0,40.0,False,,253.2266071529871,[],"[735, 460]",ColorTask,52.0,26.0,,,HRV,HRV_0008,2022-11-30 17:56:18
,wl-rdm,143,369952,0.0-8.26-0.26,1.0,144.0,,,,,,,[],,,,,,53.2,0.0,u,0.0,True,1117.1000000238419,67.0,60.0,40.0,False,,259.71016435426,[],"[735, 460]",ColorTask,53.0,27.0,,,HRV,HRV_0008,2022-11-30 17:56:18
,wl-rdm,144,372084,0.0-8.27-0.27,1.0,145.0,,,,,,,[],,,,,,73.6,1.0,i,1.0,True,805.5000001192093,49.0,60.0,40.0,False,,250.44232908089768,[],"[735, 460]",ColorTask,54.0,28.0,,,HRV,HRV_0008,2022-11-30 17:56:18
,wl-rdm,145,374651,0.0-8.28-0.28,1.0,146.0,,,,,,,[],,,,,,53.2,0.0,u,0.0,True,1266.8000000715256,76.0,60.0,40.0,False,,232.70000344190112,[],"[735, 460]",ColorTask,55.0,29.0,,,HRV,HRV_0008,2022-11-30 17:56:18
,wl-rdm,146,377018,0.0-8.29-0.29,1.0,147.0,,,,,,,[],,,,,,53.2,1.0,i,1.0,True,926.0000001192093,56.0,60.0,40.0,False,,378.8971918794525,[],"[735, 460]",ColorTask,56.0,30.0,,,HRV,HRV_0008,2022-11-30 17:56:18
,wl-rdm,147,379601,0.0-8.30-0.30,1.0,148.0,,,,,,,[],,,,,,50.0,0.0,u,0.0,True,1281.0000001192093,77.0,60.0,40.0,False,,227.07198002303204,[],"[735, 460]",ColorTask,57.0,31.0,,,HRV,HRV_0008,2022-11-30 17:56:18
,wl-rdm,148,381884,0.0-8.31-0.31,1.0,149.0,,,,,,,[],,,,,,50.0,0.0,i,1.0,False,874.8999999761581,53.0,60.0,40.0,False,,332.86975914544746,[],"[735, 460]",ColorTask,56.0,32.0,,,HRV,HRV_0008,2022-11-30 17:56:18
,wl-rdm,149,384318,0.0-8.32-0.32,1.0,150.0,,,,,,,[],,,,,,56.4,0.0,i,1.0,False,1086.5,66.0,60.0,40.0,False,,257.23743904317905,[],"[735, 460]",ColorTask,55.0,33.0,,,HRV,HRV_0008,2022-11-30 17:56:18
,wl-rdm,150,386768,0.0-8.33-0.33,1.0,151.0,,,,,,,[],,,,,,73.6,0.0,u,0.0,True,1108.7999999523163,67.0,60.0,40.0,False,,273.53709760605983,[],"[735, 460]",ColorTask,56.0,34.0,,,HRV,HRV_0008,2022-11-30 17:56:18
,wl-rdm,151,389117,0.0-8.34-0.34,1.0,152.0,,,,,,,[],,,,,,56.4,1.0,i,1.0,True,1063.5,64.0,60.0,40.0,False,,204.53659948009627,[],"[735, 460]",ColorTask,57.0,35.0,,,HRV,HRV_0008,2022-11-30 17:56:18
,wl-rdm,152,391368,0.0-8.35-0.35,1.0,153.0,,,,,,,[],,,,,,87.9,0.0,u,0.0,True,969.2000000476837,59.0,60.0,40.0,False,,208.5276870893471,[],"[735, 460]",ColorTask,58.0,36.0,,,HRV,HRV_0008,2022-11-30 17:56:18
,wl-rdm,153,393817,0.0-8.36-0.36,1.0,154.0,,,,,,,[],,,,,,53.2,1.0,u,0.0,False,1103.0999999046326,67.0,60.0,40.0,False,,269.82156423053675,[],"[735, 460]",ColorTask,57.0,37.0,,,HRV,HRV_0008,2022-11-30 17:56:18
,wl-rdm,154,396200,0.0-8.37-0.37,1.0,155.0,,,,,,,[],,,,,,53.2,0.0,i,1.0,False,1062.6000000238419,64.0,60.0,40.0,False,,260.97818386502433,[],"[735, 460]",ColorTask,56.0,38.0,,,HRV,HRV_0008,2022-11-30 17:56:18
,wl-rdm,155,398667,0.0-8.38-0.38,1.0,156.0,,,,,,,[],,,,,,62.5,1.0,i,1.0,True,1074.2999999523163,65.0,60.0,40.0,False,,300.7239208756911,[],"[735, 460]",ColorTask,57.0,39.0,,,HRV,HRV_0008,2022-11-30 17:56:18
,wl-rdm,156,401107,0.0-8.39-0.39,1.0,157.0,,,,,,,[],,,,,,62.5,1.0,i,1.0,True,978.7999999523163,59.0,60.0,40.0,False,,369.721799417451,[],"[735, 460]",ColorTask,58.0,40.0,,,HRV,HRV_0008,2022-11-30 17:56:18
,wl-rdm,157,403418,0.0-8.40-0.40,1.0,158.0,,,,,,,[],,,,,,53.2,1.0,i,1.0,True,1015.2000000476837,61.0,60.0,40.0,False,,217.12479395957573,[],"[735, 460]",ColorTask,59.0,41.0,,,HRV,HRV_0008,2022-11-30 17:56:18
,wl-rdm,158,405667,0.0-8.41-0.41,1.0,159.0,,,,,,,[],,,,,,73.6,0.0,u,0.0,True,872.1000000238419,53.0,60.0,40.0,False,,292.6284344949604,[],"[735, 460]",ColorTask,60.0,42.0,,,HRV,HRV_0008,2022-11-30 17:56:18
,wl-rdm,159,407817,0.0-8.42-0.42,1.0,160.0,,,,,,,[],,,,,,87.9,0.0,u,0.0,True,873.0999999046326,53.0,60.0,40.0,False,,210.48194486993913,[],"[735, 460]",ColorTask,61.0,43.0,,,HRV,HRV_0008,2022-11-30 17:56:18
,wl-rdm,160,410534,0.0-8.43-0.43,1.0,161.0,,,,,,,[],,,,,,53.2,1.0,u,0.0,False,1400.6000000238419,85.0,60.0,40.0,False,,227.78117144208102,[],"[735, 460]",ColorTask,60.0,44.0,,,HRV,HRV_0008,2022-11-30 17:56:18
,wl-rdm,161,412918,0.0-8.44-0.44,1.0,162.0,,,,,,,[],,,,,,62.5,0.0,u,0.0,True,983.799999833107,59.0,60.0,40.0,False,,331.11064081609777,[],"[735, 460]",ColorTask,61.0,45.0,,,HRV,HRV_0008,2022-11-30 17:56:18
,wl-rdm,162,415284,0.0-8.45-0.45,1.0,163.0,,,,,,,[],,,,,,53.2,0.0,u,0.0,True,1076.5,65.0,60.0,40.0,False,,221.49904989966538,[],"[735, 460]",ColorTask,62.0,46.0,,,HRV,HRV_0008,2022-11-30 17:56:18
,wl-rdm,163,418017,0.0-8.46-0.46,1.0,164.0,,,,,,,[],,,,,,50.0,1.0,u,0.0,False,1407.5999999046326,85.0,60.0,40.0,False,,247.7451687855216,[],"[735, 460]",ColorTask,61.0,47.0,,,HRV,HRV_0008,2022-11-30 17:56:18
,wl-rdm,164,420350,0.0-8.47-0.47,1.0,165.0,,,,,,,[],,,,,,87.9,1.0,i,1.0,True,1004.4000000953674,61.0,60.0,40.0,False,,249.7120362835911,[],"[735, 460]",ColorTask,62.0,48.0,,,HRV,HRV_0008,2022-11-30 17:56:18
,wl-rdm,165,422584,0.0-8.48-0.48,1.0,166.0,,,,,,,[],,,,,,73.6,1.0,i,1.0,True,909.5000001192093,55.0,60.0,40.0,False,,248.0435205946467,[],"[735, 460]",ColorTask,63.0,49.0,,,HRV,HRV_0008,2022-11-30 17:56:18
,wl-rdm,166,424834,0.0-8.49-0.49,1.0,167.0,,,,,,,[],,,,,,87.9,1.0,i,1.0,True,961.0,58.0,60.0,40.0,False,,221.43305856617417,[],"[735, 460]",ColorTask,64.0,50.0,,,HRV,HRV_0008,2022-11-30 17:56:18
,wl-rdm,167,427584,0.0-8.50-0.50,1.0,168.0,,,,,,,[],,,,,,50.0,0.0,i,1.0,False,1449.0,87.0,60.0,40.0,False,,236.2351137852817,[],"[735, 460]",ColorTask,63.0,51.0,,,HRV,HRV_0008,2022-11-30 17:56:18
,wl-rdm,168,429884,0.0-8.51-0.51,1.0,169.0,,,,,,,[],,,,,,50.0,0.0,i,1.0,False,926.3999999761581,56.0,60.0,40.0,False,,285.84767702904236,[],"[735, 460]",ColorTask,62.0,52.0,,,HRV,HRV_0008,2022-11-30 17:56:18
,wl-rdm,169,432268,0.0-8.52-0.52,1.0,170.0,,,,,,,[],,,,,,73.6,0.0,u,0.0,True,1087.0,66.0,60.0,40.0,False,,203.69048207365847,[],"[735, 460]",ColorTask,63.0,53.0,,,HRV,HRV_0008,2022-11-30 17:56:18
,wl-rdm,170,434667,0.0-8.53-0.53,1.0,171.0,,,,,,,[],,,,,,62.5,0.0,u,0.0,True,1007.5,61.0,60.0,40.0,False,,330.63745596253,[],"[735, 460]",ColorTask,64.0,54.0,,,HRV,HRV_0008,2022-11-30 17:56:18
,wl-rdm,171,436851,0.0-8.54-0.54,1.0,172.0,,,,,,,[],,,,,,62.5,1.0,i,1.0,True,887.5,54.0,60.0,40.0,False,,206.26114707410272,[],"[735, 460]",ColorTask,65.0,55.0,,,HRV,HRV_0008,2022-11-30 17:56:18
,wl-rdm,172,438951,0.0-8.55-0.55,1.0,173.0,,,,,,,[],,,,,,73.6,0.0,u,0.0,True,836.8999999761581,51.0,60.0,40.0,False,,200.0922899189356,[],"[735, 460]",ColorTask,66.0,56.0,,,HRV,HRV_0008,2022-11-30 17:56:18
,wl-rdm,173,441200,0.0-8.56-0.56,1.0,174.0,,,,,,,[],,,,,,73.6,0.0,u,0.0,True,884.1000000238419,54.0,60.0,40.0,False,,274.10698107412344,[],"[735, 460]",ColorTask,67.0,57.0,,,HRV,HRV_0008,2022-11-30 17:56:18
,wl-rdm,174,443400,0.0-8.57-0.57,1.0,175.0,,,,,,,[],,,,,,53.2,1.0,u,0.0,False,904.7000000476837,55.0,60.0,40.0,False,,222.29729877349962,[],"[735, 460]",ColorTask,66.0,58.0,,,HRV,HRV_0008,2022-11-30 17:56:18
,wl-rdm,175,446017,0.0-8.58-0.58,1.0,176.0,,,,,,,[],,,,,,50.0,0.0,i,1.0,False,1204.3000000715256,73.0,60.0,40.0,False,,328.297389176227,[],"[735, 460]",ColorTask,65.0,59.0,,,HRV,HRV_0008,2022-11-30 17:56:18
,wl-rdm,176,448183,0.0-8.59-0.59,1.0,177.0,,,,,,,[],,,,,,73.6,0.0,u,0.0,True,778.8999999761581,47.0,60.0,40.0,False,,333.9336015395987,[],"[735, 460]",ColorTask,66.0,60.0,,,HRV,HRV_0008,2022-11-30 17:56:18
,wl-rdm,177,450633,0.0-8.60-0.60,1.0,178.0,,,,,,,[],,,,,,87.9,1.0,i,1.0,True,1048.5999999046326,63.0,60.0,40.0,False,,349.1139503961497,[],"[735, 460]",ColorTask,67.0,61.0,,,HRV,HRV_0008,2022-11-30 17:56:18
,wl-rdm,178,453250,0.0-8.61-0.61,1.0,179.0,,,,,,,[],,,,,,50.0,1.0,u,0.0,False,1187.1999999284744,72.0,60.0,40.0,False,,339.7510824056875,[],"[735, 460]",ColorTask,66.0,62.0,,,HRV,HRV_0008,2022-11-30 17:56:18
,wl-rdm,179,456067,0.0-8.62-0.62,1.0,180.0,,,,,,,[],,,,,,56.4,0.0,i,1.0,False,1370.1000000238419,83.0,60.0,40.0,False,,361.9560758811067,[],"[735, 460]",ColorTask,65.0,63.0,,,HRV,HRV_0008,2022-11-30 17:56:18
,wl-rdm,180,458784,0.0-8.63-0.63,1.0,181.0,,,,,,,[],,,,,,53.2,1.0,u,0.0,False,1345.0,81.0,60.0,40.0,False,,314.24721086627983,[],"[735, 460]",ColorTask,64.0,64.0,,,HRV,HRV_0008,2022-11-30 17:56:18
,wl-rdm,181,460867,0.0-8.64-0.64,1.0,182.0,,,,,,,[],,,,,,87.9,0.0,u,0.0,True,725.2000000476837,44.0,60.0,40.0,False,,273.3201062681869,[],"[735, 460]",ColorTask,65.0,65.0,,,HRV,HRV_0008,2022-11-30 17:56:18
,wl-rdm,182,463533,0.0-8.65-0.65,1.0,183.0,,,,,,,[],,,,,,56.4,0.0,u,0.0,True,1316.3999999761581,79.0,60.0,40.0,False,,274.00060016677526,[],"[735, 460]",ColorTask,66.0,66.0,,,HRV,HRV_0008,2022-11-30 17:56:18
,wl-rdm,183,466167,0.0-8.66-0.66,1.0,184.0,,,,,,,[],,,,,,50.0,0.0,i,1.0,False,1227.0,74.0,60.0,40.0,False,,333.25733845705633,[],"[735, 460]",ColorTask,65.0,67.0,,,HRV,HRV_0008,2022-11-30 17:56:18
,wl-rdm,184,468667,0.0-8.67-0.67,1.0,185.0,,,,,,,[],,,,,,62.5,0.0,u,0.0,True,1103.8999998569489,67.0,60.0,40.0,False,,313.48531961208795,[],"[735, 460]",ColorTask,66.0,68.0,,,HRV,HRV_0008,2022-11-30 17:56:18
,wl-rdm,185,471117,0.0-8.68-0.68,1.0,186.0,,,,,,,[],,,,,,56.4,0.0,u,0.0,True,1142.5,69.0,60.0,40.0,False,,230.06339173227212,[],"[735, 460]",ColorTask,67.0,69.0,,,HRV,HRV_0008,2022-11-30 17:56:18
,wl-rdm,186,473617,0.0-8.69-0.69,1.0,187.0,,,,,,,[],,,,,,56.4,1.0,u,0.0,False,1121.0,68.0,60.0,40.0,False,,304.97282236128524,[],"[735, 460]",ColorTask,66.0,70.0,,,HRV,HRV_0008,2022-11-30 17:56:18
,wl-rdm,187,476300,0.0-8.70-0.70,1.0,188.0,,,,,,,[],,,,,,53.2,0.0,i,1.0,False,1271.8000000715256,77.0,60.0,40.0,False,,324.85086441422413,[],"[735, 460]",ColorTask,65.0,71.0,,,HRV,HRV_0008,2022-11-30 17:56:18
,wl-rdm,188,479267,0.0-8.71-0.71,1.0,189.0,,,,,,,[],,,,,,53.2,0.0,i,1.0,False,1638.0,99.0,60.0,40.0,False,,240.18244859217674,[],"[735, 460]",ColorTask,64.0,72.0,,,HRV,HRV_0008,2022-11-30 17:56:18
,wl-rdm,189,481733,0.0-8.72-0.72,1.0,190.0,,,,,,,[],,,,,,56.4,0.0,i,1.0,False,1057.2999999523163,64.0,60.0,40.0,False,,334.00222995122806,[],"[735, 460]",ColorTask,63.0,73.0,,,HRV,HRV_0008,2022-11-30 17:56:18
,wl-rdm,190,484284,0.0-8.73-0.73,1.0,191.0,,,,,,,[],,,,,,50.0,1.0,i,1.0,True,1220.8999998569489,74.0,60.0,40.0,False,,256.1779651099034,[],"[735, 460]",ColorTask,64.0,74.0,,,HRV,HRV_0008,2022-11-30 17:56:18
,wl-rdm,191,486883,0.0-8.74-0.74,1.0,192.0,,,,,,,[],,,,,,50.0,1.0,i,1.0,True,1280.3000000715256,77.0,60.0,40.0,False,,255.6899586264334,[],"[735, 460]",ColorTask,65.0,75.0,,,HRV,HRV_0008,2022-11-30 17:56:18
,wl-rdm,192,489567,0.0-8.75-0.75,1.0,193.0,,,,,,,[],,,,,,56.4,1.0,i,1.0,True,1287.3000000715256,78.0,60.0,40.0,False,,309.964107110259,[],"[735, 460]",ColorTask,66.0,76.0,,,HRV,HRV_0008,2022-11-30 17:56:18
,wl-rdm,193,491833,0.0-8.76-0.76,1.0,194.0,,,,,,,[],,,,,,62.5,1.0,i,1.0,True,874.4999998807907,53.0,60.0,40.0,False,,307.1103721082659,[],"[735, 460]",ColorTask,67.0,77.0,,,HRV,HRV_0008,2022-11-30 17:56:18
,wl-rdm,194,494000,0.0-8.77-0.77,1.0,195.0,,,,,,,[],,,,,,87.9,0.0,u,0.0,True,787.0999999046326,48.0,60.0,40.0,False,,301.58674137345173,[],"[735, 460]",ColorTask,68.0,78.0,,,HRV,HRV_0008,2022-11-30 17:56:18
,wl-rdm,195,496266,0.0-8.78-0.78,1.0,196.0,,,,,,,[],,,,,,87.9,1.0,i,1.0,True,895.3000000715256,54.0,60.0,40.0,False,,312.06433573910357,[],"[735, 460]",ColorTask,69.0,79.0,,,HRV,HRV_0008,2022-11-30 17:56:18
,wl-rdm,196,498949,0.0-8.79-0.79,1.0,197.0,,,,,,,[],,,,,,56.4,1.0,i,1.0,True,1414.1000000238419,85.0,60.0,40.0,False,,215.0787155648592,[],"[735, 460]",ColorTask,70.0,80.0,,,HRV,HRV_0008,2022-11-30 17:56:18
,wl-rdm,197,501716,0.0-8.80-0.80,1.0,198.0,,,,,,,[],,,,,,62.5,1.0,i,1.0,True,1471.1999999284744,89.0,60.0,40.0,False,,216.61845056289383,[],"[735, 460]",ColorTask,71.0,81.0,,,HRV,HRV_0008,2022-11-30 17:56:18
,wl-rdm,198,504450,0.0-8.81-0.81,1.0,199.0,,,,,,,[],,,,,,56.4,1.0,i,1.0,True,1385.8000000715256,84.0,60.0,40.0,False,,274.1191586776923,[],"[735, 460]",ColorTask,72.0,82.0,,,HRV,HRV_0008,2022-11-30 17:56:18
,wl-rdm,199,506499,0.0-8.82-0.82,1.0,200.0,,,,,,,[],,,,,,62.5,1.0,i,1.0,True,777.6000000238419,47.0,60.0,40.0,False,,212.89908281820973,[],"[735, 460]",ColorTask,73.0,83.0,,,HRV,HRV_0008,2022-11-30 17:56:18
,wl-rdm,200,508417,0.0-8.83-0.83,1.0,201.0,,,,,,,[],,,,,,87.9,0.0,u,0.0,True,628.0999999046326,38.0,60.0,40.0,False,,211.31701192128935,[],"[735, 460]",ColorTask,74.0,84.0,,,HRV,HRV_0008,2022-11-30 17:56:18
,wl-rdm,201,510682,0.0-8.84-0.84,1.0,202.0,,,,,,,[],,,,,,87.9,1.0,i,1.0,True,935.5,57.0,60.0,40.0,False,,237.23618437658092,[],"[735, 460]",ColorTask,75.0,85.0,,,HRV,HRV_0008,2022-11-30 17:56:18
,wl-rdm,202,513266,0.0-8.85-0.85,1.0,203.0,,,,,,,[],,,,,,73.6,1.0,i,1.0,True,1222.3000000715256,74.0,60.0,40.0,False,,275.30986893617126,[],"[735, 460]",ColorTask,76.0,86.0,,,HRV,HRV_0008,2022-11-30 17:56:18
,wl-rdm,203,515799,0.0-8.86-0.86,1.0,204.0,,,,,,,[],,,,,,73.6,1.0,i,1.0,True,1214.5,73.0,60.0,40.0,False,,263.0534495859513,[],"[735, 460]",ColorTask,77.0,87.0,,,HRV,HRV_0008,2022-11-30 17:56:18
,wl-rdm,204,518199,0.0-8.87-0.87,1.0,205.0,,,,,,,[],,,,,,87.9,1.0,i,1.0,True,1020.5,62.0,60.0,40.0,False,,312.84743716540527,[],"[735, 460]",ColorTask,78.0,88.0,,,HRV,HRV_0008,2022-11-30 17:56:18
,wl-rdm,205,520282,0.0-8.88-0.88,1.0,206.0,,,,,,,[],,,,,,87.9,0.0,u,0.0,True,689.1000000238419,42.0,60.0,40.0,False,,314.52477888764406,[],"[735, 460]",ColorTask,79.0,89.0,,,HRV,HRV_0008,2022-11-30 17:56:18
,wl-rdm,206,523615,0.0-8.89-0.89,1.0,207.0,,,,,,,[],,,,,,50.0,1.0,i,1.0,True,1889.2999999523163,114.0,60.0,40.0,False,,370.0553250016936,[],"[735, 460]",ColorTask,80.0,90.0,,,HRV,HRV_0008,2022-11-30 17:56:18
,wl-rdm,207,526449,0.0-8.90-0.90,1.0,208.0,,,,,,,[],,,,,,53.2,1.0,i,1.0,True,1557.5,94.0,60.0,40.0,False,,205.12299200225306,[],"[735, 460]",ColorTask,81.0,91.0,,,HRV,HRV_0008,2022-11-30 17:56:18
,wl-rdm,208,528566,0.0-8.91-0.91,1.0,209.0,,,,,,,[],,,,,,56.4,1.0,i,1.0,True,820.2999999523163,50.0,60.0,40.0,False,,210.84681316243808,[],"[735, 460]",ColorTask,82.0,92.0,,,HRV,HRV_0008,2022-11-30 17:56:18
,wl-rdm,209,531100,0.0-8.92-0.92,1.0,210.0,,,,,,,[],,,,,,62.5,0.0,u,0.0,True,1240.3999999761581,75.0,60.0,40.0,False,,201.11664187721385,[],"[735, 460]",ColorTask,83.0,93.0,,,HRV,HRV_0008,2022-11-30 17:56:18
,wl-rdm,210,534133,0.0-8.93-0.93,1.0,211.0,,,,,,,[],,,,,,56.4,1.0,u,0.0,False,1596.6000000238419,96.0,60.0,40.0,False,,362.8565180571035,[],"[735, 460]",ColorTask,82.0,94.0,,,HRV,HRV_0008,2022-11-30 17:56:18
,wl-rdm,211,536850,0.0-8.94-0.94,1.0,212.0,,,,,,,[],,,,,,73.6,1.0,i,1.0,True,1372.2999999523163,83.0,60.0,40.0,False,,250.613170529503,[],"[735, 460]",ColorTask,83.0,95.0,,,HRV,HRV_0008,2022-11-30 17:56:18
,wl-rdm,212,539566,0.0-8.95-0.95,1.0,213.0,,,,,,,[],,,,,,53.2,0.0,i,1.0,False,1288.9000000953674,78.0,60.0,40.0,False,,344.74602481136895,[],"[735, 460]",ColorTask,82.0,96.0,,,HRV,HRV_0008,2022-11-30 17:56:18
,wl-rdm,213,542349,0.0-8.96-0.96,1.0,214.0,,,,,,,[],,,,,,56.4,0.0,u,0.0,True,1475.7000000476837,89.0,60.0,40.0,False,,230.84756666526607,[],"[735, 460]",ColorTask,83.0,97.0,,,HRV,HRV_0008,2022-11-30 17:56:18
,wl-rdm,214,544532,0.0-8.97-0.97,1.0,215.0,,,,,,,[],,,,,,53.2,0.0,u,0.0,True,884.3999999761581,54.0,60.0,40.0,False,,211.03200247099625,[],"[735, 460]",ColorTask,84.0,98.0,,,HRV,HRV_0008,2022-11-30 17:56:18
,wl-rdm,215,546783,0.0-8.98-0.98,1.0,216.0,,,,,,,[],,,,,,62.5,0.0,u,0.0,True,894.299999833107,54.0,60.0,40.0,False,,267.3469362953112,[],"[735, 460]",ColorTask,85.0,99.0,,,HRV,HRV_0008,2022-11-30 17:56:18
,wl-rdm,216,549083,0.0-8.99-0.99,1.0,217.0,,,,,,,[],,,,,,56.4,0.0,u,0.0,True,855.3999999761581,52.0,60.0,40.0,False,,352.5556643528888,[],"[735, 460]",ColorTask,86.0,100.0,,,HRV,HRV_0008,2022-11-30 17:56:18
,wl-rdm,217,551716,0.0-8.100-0.100,1.0,218.0,,,,,,,[],,,,,,50.0,1.0,u,0.0,False,1308.0,79.0,60.0,40.0,False,,252.0348424168474,[],"[735, 460]",ColorTask,85.0,101.0,,,HRV,HRV_0008,2022-11-30 17:56:18
,wl-rdm,218,554483,0.0-8.101-0.101,1.0,219.0,,,,,,,[],,,,,,62.5,0.0,u,0.0,True,1406.0,85.0,60.0,40.0,False,,278.11902684078916,[],"[735, 460]",ColorTask,86.0,102.0,,,HRV,HRV_0008,2022-11-30 17:56:18
,wl-rdm,219,556999,0.0-8.102-0.102,1.0,220.0,,,,,,,[],,,,,,50.0,0.0,i,1.0,False,1238.2000000476837,75.0,60.0,40.0,False,,203.71038349524943,[],"[735, 460]",ColorTask,85.0,103.0,,,HRV,HRV_0008,2022-11-30 17:56:18
,wl-rdm,220,559432,0.0-8.103-0.103,1.0,221.0,,,,,,,[],,,,,,53.2,1.0,i,1.0,True,964.799999833107,58.0,60.0,40.0,False,,384.92808012985216,[],"[735, 460]",ColorTask,86.0,104.0,,,HRV,HRV_0008,2022-11-30 17:56:18
,wl-rdm,221,562182,0.0-8.104-0.104,1.0,222.0,,,,,,,[],,,,,,56.4,0.0,u,0.0,True,1471.6999999284744,89.0,60.0,40.0,False,,212.42110908170378,[],"[735, 460]",ColorTask,87.0,105.0,,,HRV,HRV_0008,2022-11-30 17:56:18
,wl-rdm,222,564715,0.0-8.105-0.105,1.0,223.0,,,,,,,[],,,,,,50.0,0.0,u,0.0,True,1145.6000001430511,69.0,60.0,40.0,False,,312.12014546922126,[],"[735, 460]",ColorTask,88.0,106.0,,,HRV,HRV_0008,2022-11-30 17:56:18
,wl-rdm,223,567216,0.0-8.106-0.106,1.0,224.0,,,,,,,[],,,,,,73.6,1.0,i,1.0,True,1053.0,64.0,60.0,40.0,False,,378.96466165413494,[],"[735, 460]",ColorTask,89.0,107.0,,,HRV,HRV_0008,2022-11-30 17:56:18
,wl-rdm,224,569566,0.0-8.107-0.107,1.0,225.0,,,,,,,[],,,,,,87.9,0.0,u,0.0,True,955.1999999284744,58.0,60.0,40.0,False,,306.63422260630847,[],"[735, 460]",ColorTask,90.0,108.0,,,HRV,HRV_0008,2022-11-30 17:56:18
,wl-html-button-response,225,571481,0.0-9.0-0.0,,,,,,,,,,1909.7999999523163,,0,,,,,,,,,,,,,,,,,,,,<h3>End of this session. Thank you!</h3><br>,['Close window'],HRV,HRV_0008,2022-11-30 17:56:18
