trialN,stimuli,trialStartTime,trialStartTime_UNIX,stimulus1,stimulus2,stimulus1Bid,stimulus2Bid,delta,selected,rt,rt_UNIX,rt_perfnow,receivedResponse,rsp,trialEndTime,trialDuration,trialEndTime_UNIX,trialDuration_UNIX,exp,subjectId,date
0,"[{'imgObject': {}, 'id': 'tacos', 'src': '/static/foodstim60/tacos.jpg', 'key': 'u', 'origWidth': 411, 'origHeight': 411, 'width': 411, 'height': 411, 'widthPercent': 0.45, 'rescaleHeight': False, 'trialN': 0, 'loaded': True, 'loadedTime': 3145.2999999523163, 'positionName': 'LEFT', 'positionCoords': [510.6, 334.5], 'bid': 6.4}, {'imgObject': {}, 'id': 'banana', 'src': '/static/foodstim60/banana.jpg', 'key': 'i', 'origWidth': 410, 'origHeight': 410, 'width': 410, 'height': 410, 'widthPercent': 0.45, 'rescaleHeight': False, 'trialN': 0, 'loaded': True, 'loadedTime': 3261.7000000476837, 'positionName': 'RIGHT', 'positionCoords': [998.4, 335], 'bid': 6.2}]",3739.0,1669841541652,tacos,banana,6.4,6.2,-0.20000000000000018,tacos,1473.9000000953674,1474,1474.5,True,u,5722.200000047684,1983.2000000476837,1669841543635,1983,HRV,HRV_0300,2022-11-30 20:57:43
1,"[{'imgObject': {}, 'id': 'burrito', 'src': '/static/foodstim60/burrito.jpg', 'key': 'u', 'origWidth': 410, 'origHeight': 410, 'width': 410, 'height': 410, 'widthPercent': 0.45, 'rescaleHeight': False, 'trialN': 1, 'loaded': True, 'loadedTime': 3302.7999999523163, 'positionName': 'LEFT', 'positionCoords': [511.6, 335], 'bid': 9.75}, {'imgObject': {}, 'id': 'bagel and cc', 'src': '/static/foodstim60/bagel and cc.jpg', 'key': 'i', 'origWidth': 410, 'origHeight': 410, 'width': 410, 'height': 410, 'widthPercent': 0.45, 'rescaleHeight': False, 'trialN': 1, 'loaded': True, 'loadedTime': 3318.5, 'positionName': 'RIGHT', 'positionCoords': [998.4, 335], 'bid': 8.14}]",5722.600000143051,1669841543635,burrito,bagel and cc,9.75,8.14,-1.6099999999999994,burrito,858.2999999523163,859,858.6999998092651,True,u,7089.0,1366.3999998569489,1669841545002,1367,HRV,HRV_0300,2022-11-30 20:57:43
2,"[{'imgObject': {}, 'id': 'bagel plain', 'src': '/static/foodstim60/bagel plain.jpg', 'key': 'u', 'origWidth': 410, 'origHeight': 410, 'width': 410, 'height': 410, 'widthPercent': 0.45, 'rescaleHeight': False, 'trialN': 2, 'loaded': True, 'loadedTime': 3346.7999999523163, 'positionName': 'LEFT', 'positionCoords': [511.6, 335], 'bid': 7.890000000000001}, {'imgObject': {}, 'id': 'bagel and cc', 'src': '/static/foodstim60/bagel and cc.jpg', 'key': 'i', 'origWidth': 410, 'origHeight': 410, 'width': 410, 'height': 410, 'widthPercent': 0.45, 'rescaleHeight': False, 'trialN': 2, 'loaded': True, 'loadedTime': 3317.7999999523163, 'positionName': 'RIGHT', 'positionCoords': [998.4, 335], 'bid': 8.14}]",7089.400000095367,1669841545002,bagel plain,bagel and cc,7.890000000000001,8.14,0.25,bagel and cc,1443.7000000476837,1445,1444.5,True,i,9055.100000143051,1965.7000000476837,1669841546968,1966,HRV,HRV_0300,2022-11-30 20:57:43
3,"[{'imgObject': {}, 'id': 'raspberries', 'src': '/static/foodstim60/raspberries.jpg', 'key': 'u', 'origWidth': 411, 'origHeight': 411, 'width': 411, 'height': 411, 'widthPercent': 0.45, 'rescaleHeight': False, 'trialN': 3, 'loaded': True, 'loadedTime': 3360.5, 'positionName': 'LEFT', 'positionCoords': [510.6, 334.5], 'bid': 3.28}, {'imgObject': {}, 'id': 'blueberries', 'src': '/static/foodstim60/blueberries.jpg', 'key': 'i', 'origWidth': 411, 'origHeight': 411, 'width': 411, 'height': 411, 'widthPercent': 0.45, 'rescaleHeight': False, 'trialN': 3, 'loaded': True, 'loadedTime': 3369.600000143051, 'positionName': 'RIGHT', 'positionCoords': [998.4, 334.5], 'bid': 2.95}]",9055.400000095367,1669841546968,raspberries,blueberries,3.28,2.95,-0.3299999999999996,blueberries,1101.7000000476837,1102,1102.2999999523163,True,i,10668.299999952316,1612.8999998569489,1669841548581,1613,HRV,HRV_0300,2022-11-30 20:57:43
4,"[{'imgObject': {}, 'id': 'sushi w_condiments', 'src': '/static/foodstim60/sushi w_condiments.jpg', 'key': 'u', 'origWidth': 410, 'origHeight': 410, 'width': 410, 'height': 410, 'widthPercent': 0.45, 'rescaleHeight': False, 'trialN': 4, 'loaded': True, 'loadedTime': 3372.2999999523163, 'positionName': 'LEFT', 'positionCoords': [511.6, 335], 'bid': 0.12}, {'imgObject': {}, 'id': 'cherries', 'src': '/static/foodstim60/cherries.jpg', 'key': 'i', 'origWidth': 410, 'origHeight': 411, 'width': 410, 'height': 411, 'widthPercent': 0.45, 'rescaleHeight': False, 'trialN': 4, 'loaded': True, 'loadedTime': 3377.5, 'positionName': 'RIGHT', 'positionCoords': [998.4, 334.5], 'bid': 2.53}]",10668.5,1669841548581,sushi w_condiments,cherries,0.12,2.53,2.4099999999999997,cherries,977.2000000476837,978,977.7999999523163,True,i,12153.200000047684,1484.7000000476837,1669841550066,1485,HRV,HRV_0300,2022-11-30 20:57:43
5,"[{'imgObject': {}, 'id': 'Tribe humus pita', 'src': '/static/foodstim60/Tribe humus pita.jpg', 'key': 'u', 'origWidth': 411, 'origHeight': 411, 'width': 411, 'height': 411, 'widthPercent': 0.45, 'rescaleHeight': False, 'trialN': 5, 'loaded': True, 'loadedTime': 3378.600000143051, 'positionName': 'LEFT', 'positionCoords': [510.6, 334.5], 'bid': 4.5600000000000005}, {'imgObject': {}, 'id': 'burrito', 'src': '/static/foodstim60/burrito.jpg', 'key': 'i', 'origWidth': 410, 'origHeight': 410, 'width': 410, 'height': 410, 'widthPercent': 0.45, 'rescaleHeight': False, 'trialN': 5, 'loaded': True, 'loadedTime': 3302.600000143051, 'positionName': 'RIGHT', 'positionCoords': [998.4, 335], 'bid': 9.75}]",12153.400000095367,1669841550066,Tribe humus pita,burrito,4.5600000000000005,9.75,5.1899999999999995,burrito,1059.7000000476837,1060,1060.2999999523163,True,i,13723.200000047684,1569.7999999523163,1669841551636,1570,HRV,HRV_0300,2022-11-30 20:57:43
6,"[{'imgObject': {}, 'id': 'grilled chicken strips', 'src': '/static/foodstim60/grilled chicken strips.jpg', 'key': 'u', 'origWidth': 410, 'origHeight': 411, 'width': 410, 'height': 411, 'widthPercent': 0.45, 'rescaleHeight': False, 'trialN': 6, 'loaded': True, 'loadedTime': 3417.2999999523163, 'positionName': 'LEFT', 'positionCoords': [511.6, 334.5], 'bid': 9.35}, {'imgObject': {}, 'id': 'banana', 'src': '/static/foodstim60/banana.jpg', 'key': 'i', 'origWidth': 410, 'origHeight': 410, 'width': 410, 'height': 410, 'widthPercent': 0.45, 'rescaleHeight': False, 'trialN': 6, 'loaded': True, 'loadedTime': 3265.4000000953674, 'positionName': 'RIGHT', 'positionCoords': [998.4, 335], 'bid': 6.2}]",13723.799999952316,1669841551636,grilled chicken strips,banana,9.35,6.2,-3.1499999999999995,grilled chicken strips,793.3000001907349,795,794.2000000476837,True,u,15039.5,1315.7000000476837,1669841552952,1316,HRV,HRV_0300,2022-11-30 20:57:43
7,"[{'imgObject': {}, 'id': 'orange slices', 'src': '/static/foodstim60/orange slices.jpg', 'key': 'u', 'origWidth': 409, 'origHeight': 410, 'width': 409, 'height': 410, 'widthPercent': 0.45, 'rescaleHeight': False, 'trialN': 7, 'loaded': True, 'loadedTime': 3417.7999999523163, 'positionName': 'LEFT', 'positionCoords': [512.6, 335], 'bid': 7.48}, {'imgObject': {}, 'id': 'grilled chicken strips', 'src': '/static/foodstim60/grilled chicken strips.jpg', 'key': 'i', 'origWidth': 410, 'origHeight': 411, 'width': 410, 'height': 411, 'widthPercent': 0.45, 'rescaleHeight': False, 'trialN': 7, 'loaded': True, 'loadedTime': 3416.5, 'positionName': 'RIGHT', 'positionCoords': [998.4, 334.5], 'bid': 9.35}]",15040.100000143051,1669841552953,orange slices,grilled chicken strips,7.48,9.35,1.8699999999999992,grilled chicken strips,797.0999999046326,798,797.7999999523163,True,i,16345.0,1304.8999998569489,1669841554258,1305,HRV,HRV_0300,2022-11-30 20:57:43
8,"[{'imgObject': {}, 'id': 'mashed potato', 'src': '/static/foodstim60/mashed potato.jpg', 'key': 'u', 'origWidth': 409, 'origHeight': 409, 'width': 409, 'height': 409, 'widthPercent': 0.45, 'rescaleHeight': False, 'trialN': 8, 'loaded': True, 'loadedTime': 3421.4000000953674, 'positionName': 'LEFT', 'positionCoords': [512.6, 335.5], 'bid': 6.54}, {'imgObject': {}, 'id': 'omelette', 'src': '/static/foodstim60/omelette.jpg', 'key': 'i', 'origWidth': 410, 'origHeight': 409, 'width': 410, 'height': 409, 'widthPercent': 0.45, 'rescaleHeight': False, 'trialN': 8, 'loaded': True, 'loadedTime': 3468.2999999523163, 'positionName': 'RIGHT', 'positionCoords': [998.4, 335.5], 'bid': 5.72}]",16345.400000095367,1669841554258,mashed potato,omelette,6.54,5.72,-0.8200000000000003,mashed potato,1219.7000000476837,1220,1220.2999999523163,True,u,18074.0,1728.5999999046326,1669841555987,1729,HRV,HRV_0300,2022-11-30 20:57:43
9,"[{'imgObject': {}, 'id': 'fried eggs', 'src': '/static/foodstim60/fried eggs.jpg', 'key': 'u', 'origWidth': 410, 'origHeight': 410, 'width': 410, 'height': 410, 'widthPercent': 0.45, 'rescaleHeight': False, 'trialN': 9, 'loaded': True, 'loadedTime': 3469.600000143051, 'positionName': 'LEFT', 'positionCoords': [511.6, 335], 'bid': 5.4}, {'imgObject': {}, 'id': 'fruitsalad', 'src': '/static/foodstim60/fruitsalad.jpg', 'key': 'i', 'origWidth': 410, 'origHeight': 410, 'width': 410, 'height': 410, 'widthPercent': 0.45, 'rescaleHeight': False, 'trialN': 9, 'loaded': True, 'loadedTime': 3484.7999999523163, 'positionName': 'RIGHT', 'positionCoords': [998.4, 335], 'bid': 0.17}]",18074.299999952316,1669841555987,fried eggs,fruitsalad,5.4,0.17,-5.23,fried eggs,898.7000000476837,900,899.6000001430511,True,u,19489.700000047684,1415.4000000953674,1669841557403,1416,HRV,HRV_0300,2022-11-30 20:57:43
10,"[{'imgObject': {}, 'id': 'veggieswithdip', 'src': '/static/foodstim60/veggieswithdip.jpg', 'key': 'u', 'origWidth': 409, 'origHeight': 409, 'width': 409, 'height': 409, 'widthPercent': 0.45, 'rescaleHeight': False, 'trialN': 10, 'loaded': True, 'loadedTime': 3487.4000000953674, 'positionName': 'LEFT', 'positionCoords': [512.6, 335.5], 'bid': 6.22}, {'imgObject': {}, 'id': 'banana', 'src': '/static/foodstim60/banana.jpg', 'key': 'i', 'origWidth': 410, 'origHeight': 410, 'width': 410, 'height': 410, 'widthPercent': 0.45, 'rescaleHeight': False, 'trialN': 10, 'loaded': True, 'loadedTime': 3263.5, 'positionName': 'RIGHT', 'positionCoords': [998.4, 335], 'bid': 6.2}]",19490.10000014305,1669841557403,veggieswithdip,banana,6.22,6.2,-0.019999999999999574,banana,1210.7999999523163,1211,1211.1999998092651,True,i,21208.5,1718.3999998569489,1669841559121,1718,HRV,HRV_0300,2022-11-30 20:57:43
11,"[{'imgObject': {}, 'id': 'kiwi', 'src': '/static/foodstim60/kiwi.jpg', 'key': 'u', 'origWidth': 410, 'origHeight': 410, 'width': 410, 'height': 410, 'widthPercent': 0.45, 'rescaleHeight': False, 'trialN': 11, 'loaded': True, 'loadedTime': 3245.2000000476837, 'positionName': 'LEFT', 'positionCoords': [511.6, 335], 'bid': 0.28}, {'imgObject': {}, 'id': 'hashbrowns', 'src': '/static/foodstim60/hashbrowns.jpg', 'key': 'i', 'origWidth': 411, 'origHeight': 410, 'width': 411, 'height': 410, 'widthPercent': 0.45, 'rescaleHeight': False, 'trialN': 11, 'loaded': True, 'loadedTime': 3251.4000000953674, 'positionName': 'RIGHT', 'positionCoords': [998.4, 335], 'bid': 3.92}]",21208.60000014305,1669841559122,kiwi,hashbrowns,0.28,3.92,3.6399999999999997,hashbrowns,1037.0999999046326,1037,1037.6999998092651,True,i,22761.400000095367,1552.7999999523163,1669841560674,1552,HRV,HRV_0300,2022-11-30 20:57:43
12,"[{'imgObject': {}, 'id': 'steak', 'src': '/static/foodstim60/steak.jpg', 'key': 'u', 'origWidth': 410, 'origHeight': 410, 'width': 410, 'height': 410, 'widthPercent': 0.45, 'rescaleHeight': False, 'trialN': 12, 'loaded': True, 'loadedTime': 3251.7000000476837, 'positionName': 'LEFT', 'positionCoords': [511.6, 335], 'bid': 9.92}, {'imgObject': {}, 'id': 'cheerios', 'src': '/static/foodstim60/cheerios.jpg', 'key': 'i', 'origWidth': 409, 'origHeight': 410, 'width': 409, 'height': 410, 'widthPercent': 0.45, 'rescaleHeight': False, 'trialN': 12, 'loaded': True, 'loadedTime': 3493.4000000953674, 'positionName': 'RIGHT', 'positionCoords': [998.4, 335], 'bid': 5.0200000000000005}]",22761.60000014305,1669841560675,steak,cheerios,9.92,5.0200000000000005,-4.8999999999999995,steak,739.5,740,740.2999999523163,True,u,24008.799999952316,1247.1999998092651,1669841561922,1247,HRV,HRV_0300,2022-11-30 20:57:43
13,"[{'imgObject': {}, 'id': 'raisin bran w milk', 'src': '/static/foodstim60/raisin bran w milk.jpg', 'key': 'u', 'origWidth': 411, 'origHeight': 411, 'width': 411, 'height': 411, 'widthPercent': 0.45, 'rescaleHeight': False, 'trialN': 13, 'loaded': True, 'loadedTime': 3496.2999999523163, 'positionName': 'LEFT', 'positionCoords': [510.6, 334.5], 'bid': 2.29}, {'imgObject': {}, 'id': 'Grapes', 'src': '/static/foodstim60/Grapes.jpg', 'key': 'i', 'origWidth': 411, 'origHeight': 411, 'width': 411, 'height': 411, 'widthPercent': 0.45, 'rescaleHeight': False, 'trialN': 13, 'loaded': True, 'loadedTime': 3498.4000000953674, 'positionName': 'RIGHT', 'positionCoords': [998.4, 334.5], 'bid': 2.13}]",24008.900000095367,1669841561922,raisin bran w milk,Grapes,2.29,2.13,-0.16000000000000014,Grapes,1036.0999999046326,1037,1036.8999998569489,True,i,25556.900000095367,1548.0,1669841563470,1548,HRV,HRV_0300,2022-11-30 20:57:43
14,"[{'imgObject': {}, 'id': 'mac & cheese', 'src': '/static/foodstim60/mac & cheese.jpg', 'key': 'u', 'origWidth': 410, 'origHeight': 410, 'width': 410, 'height': 410, 'widthPercent': 0.45, 'rescaleHeight': False, 'trialN': 14, 'loaded': True, 'loadedTime': 3536, 'positionName': 'LEFT', 'positionCoords': [511.6, 335], 'bid': 9.85}, {'imgObject': {}, 'id': 'turkeysandwich', 'src': '/static/foodstim60/turkeysandwich.jpg', 'key': 'i', 'origWidth': 409, 'origHeight': 409, 'width': 409, 'height': 409, 'widthPercent': 0.45, 'rescaleHeight': False, 'trialN': 14, 'loaded': True, 'loadedTime': 3549.9000000953674, 'positionName': 'RIGHT', 'positionCoords': [998.4, 335.5], 'bid': 8.21}]",25557.200000047684,1669841563470,mac & cheese,turkeysandwich,9.85,8.21,-1.6399999999999988,turkeysandwich,1111.7999999523163,1113,1112.7999999523163,True,i,27189.60000014305,1632.4000000953674,1669841565103,1633,HRV,HRV_0300,2022-11-30 20:57:43
15,"[{'imgObject': {}, 'id': 'hashbrowns', 'src': '/static/foodstim60/hashbrowns.jpg', 'key': 'u', 'origWidth': 411, 'origHeight': 410, 'width': 411, 'height': 410, 'widthPercent': 0.45, 'rescaleHeight': False, 'trialN': 15, 'loaded': True, 'loadedTime': 3248.7000000476837, 'positionName': 'LEFT', 'positionCoords': [510.6, 335], 'bid': 3.92}, {'imgObject': {}, 'id': 'raisin bran w milk', 'src': '/static/foodstim60/raisin bran w milk.jpg', 'key': 'i', 'origWidth': 411, 'origHeight': 411, 'width': 411, 'height': 411, 'widthPercent': 0.45, 'rescaleHeight': False, 'trialN': 15, 'loaded': True, 'loadedTime': 3496.7999999523163, 'positionName': 'RIGHT', 'positionCoords': [998.4, 334.5], 'bid': 2.29}]",27189.799999952316,1669841565103,hashbrowns,raisin bran w milk,3.92,2.29,-1.63,hashbrowns,1119.3000001907349,1120,1119.9000000953674,True,u,28825.0,1635.2000000476837,1669841566738,1635,HRV,HRV_0300,2022-11-30 20:57:43
16,"[{'imgObject': {}, 'id': 'cherry tomato', 'src': '/static/foodstim60/cherry tomato.jpg', 'key': 'u', 'origWidth': 410, 'origHeight': 410, 'width': 410, 'height': 410, 'widthPercent': 0.45, 'rescaleHeight': False, 'trialN': 16, 'loaded': True, 'loadedTime': 3556, 'positionName': 'LEFT', 'positionCoords': [511.6, 335], 'bid': 4.51}, {'imgObject': {}, 'id': 'olives', 'src': '/static/foodstim60/olives.jpg', 'key': 'i', 'origWidth': 410, 'origHeight': 410, 'width': 410, 'height': 410, 'widthPercent': 0.45, 'rescaleHeight': False, 'trialN': 16, 'loaded': True, 'loadedTime': 3558.100000143051, 'positionName': 'RIGHT', 'positionCoords': [998.4, 335], 'bid': 4.28}]",28825.200000047684,1669841566738,cherry tomato,olives,4.51,4.28,-0.22999999999999954,cherry tomato,1027.9000000953674,1029,1028.7000000476837,True,u,30360.900000095367,1535.7000000476837,1669841568274,1536,HRV,HRV_0300,2022-11-30 20:57:43
17,"[{'imgObject': {}, 'id': 'seaweed', 'src': '/static/foodstim60/seaweed.jpg', 'key': 'u', 'origWidth': 410, 'origHeight': 410, 'width': 410, 'height': 410, 'widthPercent': 0.45, 'rescaleHeight': False, 'trialN': 17, 'loaded': True, 'loadedTime': 3563.5, 'positionName': 'LEFT', 'positionCoords': [511.6, 335], 'bid': 0.16}, {'imgObject': {}, 'id': 'salmon', 'src': '/static/foodstim60/salmon.jpg', 'key': 'i', 'origWidth': 410, 'origHeight': 409, 'width': 410, 'height': 409, 'widthPercent': 0.45, 'rescaleHeight': False, 'trialN': 17, 'loaded': True, 'loadedTime': 3566.2000000476837, 'positionName': 'RIGHT', 'positionCoords': [998.4, 335.5], 'bid': 1.3}]",30361.0,1669841568274,seaweed,salmon,0.16,1.3,1.1400000000000001,salmon,1067.7999999523163,1068,1068.2000000476837,True,i,31939.5,1578.5,1669841569852,1578,HRV,HRV_0300,2022-11-30 20:57:43
18,"[{'imgObject': {}, 'id': 'orange slices', 'src': '/static/foodstim60/orange slices.jpg', 'key': 'u', 'origWidth': 409, 'origHeight': 410, 'width': 409, 'height': 410, 'widthPercent': 0.45, 'rescaleHeight': False, 'trialN': 18, 'loaded': True, 'loadedTime': 3419, 'positionName': 'LEFT', 'positionCoords': [512.6, 335], 'bid': 7.48}, {'imgObject': {}, 'id': 'blackbeanswithrice', 'src': '/static/foodstim60/blackbeanswithrice.jpg', 'key': 'i', 'origWidth': 410, 'origHeight': 410, 'width': 410, 'height': 410, 'widthPercent': 0.45, 'rescaleHeight': False, 'trialN': 18, 'loaded': True, 'loadedTime': 3568.600000143051, 'positionName': 'RIGHT', 'positionCoords': [998.4, 335], 'bid': 6.67}]",31939.900000095367,1669841569853,orange slices,blackbeanswithrice,7.48,6.67,-0.8100000000000005,blackbeanswithrice,889.7999999523163,890,890.5999999046326,True,i,33339.799999952316,1399.8999998569489,1669841571253,1400,HRV,HRV_0300,2022-11-30 20:57:43
19,"[{'imgObject': {}, 'id': 'chickenfingers', 'src': '/static/foodstim60/chickenfingers.jpg', 'key': 'u', 'origWidth': 410, 'origHeight': 410, 'width': 410, 'height': 410, 'widthPercent': 0.45, 'rescaleHeight': False, 'trialN': 19, 'loaded': True, 'loadedTime': 3592.2999999523163, 'positionName': 'LEFT', 'positionCoords': [511.6, 335], 'bid': 8.85}, {'imgObject': {}, 'id': 'mashed potato', 'src': '/static/foodstim60/mashed potato.jpg', 'key': 'i', 'origWidth': 409, 'origHeight': 409, 'width': 409, 'height': 409, 'widthPercent': 0.45, 'rescaleHeight': False, 'trialN': 19, 'loaded': True, 'loadedTime': 3427.100000143051, 'positionName': 'RIGHT', 'positionCoords': [998.4, 335.5], 'bid': 6.54}]",33340.5,1669841571254,chickenfingers,mashed potato,8.85,6.54,-2.3099999999999996,chickenfingers,936.5,937,937.1000001430511,True,u,34792.700000047684,1452.2000000476837,1669841572706,1452,HRV,HRV_0300,2022-11-30 20:57:43
20,"[{'imgObject': {}, 'id': 'edamame', 'src': '/static/foodstim60/edamame.jpg', 'key': 'u', 'origWidth': 409, 'origHeight': 410, 'width': 409, 'height': 410, 'widthPercent': 0.45, 'rescaleHeight': False, 'trialN': 20, 'loaded': True, 'loadedTime': 3592.7000000476837, 'positionName': 'LEFT', 'positionCoords': [512.6, 335], 'bid': 4.1}, {'imgObject': {}, 'id': 'cherries', 'src': '/static/foodstim60/cherries.jpg', 'key': 'i', 'origWidth': 410, 'origHeight': 411, 'width': 410, 'height': 411, 'widthPercent': 0.45, 'rescaleHeight': False, 'trialN': 20, 'loaded': True, 'loadedTime': 3377.100000143051, 'positionName': 'RIGHT', 'positionCoords': [998.4, 334.5], 'bid': 2.53}]",34792.90000009537,1669841572706,edamame,cherries,4.1,2.53,-1.5699999999999998,edamame,1700.2000000476837,1701,1700.7000000476837,True,u,37007.0,2214.0999999046326,1669841574920,2214,HRV,HRV_0300,2022-11-30 20:57:43
21,"[{'imgObject': {}, 'id': 'fried eggs', 'src': '/static/foodstim60/fried eggs.jpg', 'key': 'u', 'origWidth': 410, 'origHeight': 410, 'width': 410, 'height': 410, 'widthPercent': 0.45, 'rescaleHeight': False, 'trialN': 21, 'loaded': True, 'loadedTime': 3481.2000000476837, 'positionName': 'LEFT', 'positionCoords': [511.6, 335], 'bid': 5.4}, {'imgObject': {}, 'id': 'baked potato', 'src': '/static/foodstim60/baked potato.jpg', 'key': 'i', 'origWidth': 409, 'origHeight': 410, 'width': 409, 'height': 410, 'widthPercent': 0.45, 'rescaleHeight': False, 'trialN': 21, 'loaded': True, 'loadedTime': 3606.7000000476837, 'positionName': 'RIGHT', 'positionCoords': [998.4, 335], 'bid': 5.13}]",37007.200000047684,1669841574920,fried eggs,baked potato,5.4,5.13,-0.27000000000000046,baked potato,1405.7999999523163,1407,1406.4000000953674,True,i,38922.60000014305,1915.4000000953674,1669841576836,1916,HRV,HRV_0300,2022-11-30 20:57:43
22,"[{'imgObject': {}, 'id': 'bagel plain', 'src': '/static/foodstim60/bagel plain.jpg', 'key': 'u', 'origWidth': 410, 'origHeight': 410, 'width': 410, 'height': 410, 'widthPercent': 0.45, 'rescaleHeight': False, 'trialN': 22, 'loaded': True, 'loadedTime': 3346.4000000953674, 'positionName': 'LEFT', 'positionCoords': [511.6, 335], 'bid': 7.890000000000001}, {'imgObject': {}, 'id': 'salad w chicken', 'src': '/static/foodstim60/salad w chicken.jpg', 'key': 'i', 'origWidth': 411, 'origHeight': 411, 'width': 411, 'height': 411, 'widthPercent': 0.45, 'rescaleHeight': False, 'trialN': 22, 'loaded': True, 'loadedTime': 3610.2000000476837, 'positionName': 'RIGHT', 'positionCoords': [998.4, 334.5], 'bid': 9.37}]",38922.799999952316,1669841576836,bagel plain,salad w chicken,7.890000000000001,9.37,1.4799999999999986,salad w chicken,1098.3000001907349,1099,1099.1000001430511,True,i,40543.5,1620.7000000476837,1669841578456,1620,HRV,HRV_0300,2022-11-30 20:57:43
23,"[{'imgObject': {}, 'id': 'sushi w_condiments', 'src': '/static/foodstim60/sushi w_condiments.jpg', 'key': 'u', 'origWidth': 410, 'origHeight': 410, 'width': 410, 'height': 410, 'widthPercent': 0.45, 'rescaleHeight': False, 'trialN': 23, 'loaded': True, 'loadedTime': 3373.7000000476837, 'positionName': 'LEFT', 'positionCoords': [511.6, 335], 'bid': 0.12}, {'imgObject': {}, 'id': 'froot loops w milk', 'src': '/static/foodstim60/froot loops w milk.jpg', 'key': 'i', 'origWidth': 410, 'origHeight': 410, 'width': 410, 'height': 410, 'widthPercent': 0.45, 'rescaleHeight': False, 'trialN': 23, 'loaded': True, 'loadedTime': 3610.5, 'positionName': 'RIGHT', 'positionCoords': [998.4, 335], 'bid': 5.09}]",40543.700000047684,1669841578457,sushi w_condiments,froot loops w milk,0.12,5.09,4.97,froot loops w milk,797.2999999523163,798,798.0999999046326,True,i,41854.10000014305,1310.4000000953674,1669841579767,1310,HRV,HRV_0300,2022-11-30 20:57:43
24,"[{'imgObject': {}, 'id': 'fried eggs', 'src': '/static/foodstim60/fried eggs.jpg', 'key': 'u', 'origWidth': 410, 'origHeight': 410, 'width': 410, 'height': 410, 'widthPercent': 0.45, 'rescaleHeight': False, 'trialN': 24, 'loaded': True, 'loadedTime': 3479.9000000953674, 'positionName': 'LEFT', 'positionCoords': [511.6, 335], 'bid': 5.4}, {'imgObject': {}, 'id': 'sweetpotato', 'src': '/static/foodstim60/sweetpotato.jpg', 'key': 'i', 'origWidth': 410, 'origHeight': 410, 'width': 410, 'height': 410, 'widthPercent': 0.45, 'rescaleHeight': False, 'trialN': 24, 'loaded': True, 'loadedTime': 3616.2000000476837, 'positionName': 'RIGHT', 'positionCoords': [998.4, 335], 'bid': 4.59}]",41854.40000009537,1669841579767,fried eggs,sweetpotato,5.4,4.59,-0.8100000000000005,fried eggs,974.7000000476837,976,975.2999999523163,True,u,43339.40000009537,1485.0,1669841581252,1485,HRV,HRV_0300,2022-11-30 20:57:43
25,"[{'imgObject': {}, 'id': 'eggs', 'src': '/static/foodstim60/eggs.jpg', 'key': 'u', 'origWidth': 409, 'origHeight': 409, 'width': 409, 'height': 409, 'widthPercent': 0.45, 'rescaleHeight': False, 'trialN': 25, 'loaded': True, 'loadedTime': 3618.2999999523163, 'positionName': 'LEFT', 'positionCoords': [512.6, 335.5], 'bid': 6.05}, {'imgObject': {}, 'id': 'cheerios', 'src': '/static/foodstim60/cheerios.jpg', 'key': 'i', 'origWidth': 409, 'origHeight': 410, 'width': 409, 'height': 410, 'widthPercent': 0.45, 'rescaleHeight': False, 'trialN': 25, 'loaded': True, 'loadedTime': 3492.600000143051, 'positionName': 'RIGHT', 'positionCoords': [998.4, 335], 'bid': 5.0200000000000005}]",43339.60000014305,1669841581253,eggs,cheerios,6.05,5.0200000000000005,-1.0299999999999994,eggs,1793.8999998569489,1794,1794.7999999523163,True,u,45642.5,2302.899999856949,1669841583555,2302,HRV,HRV_0300,2022-11-30 20:57:43
26,"[{'imgObject': {}, 'id': 'grilled chicken strips', 'src': '/static/foodstim60/grilled chicken strips.jpg', 'key': 'u', 'origWidth': 410, 'origHeight': 411, 'width': 410, 'height': 411, 'widthPercent': 0.45, 'rescaleHeight': False, 'trialN': 26, 'loaded': True, 'loadedTime': 3415.9000000953674, 'positionName': 'LEFT', 'positionCoords': [511.6, 334.5], 'bid': 9.35}, {'imgObject': {}, 'id': 'chickenfingers', 'src': '/static/foodstim60/chickenfingers.jpg', 'key': 'i', 'origWidth': 410, 'origHeight': 410, 'width': 410, 'height': 410, 'widthPercent': 0.45, 'rescaleHeight': False, 'trialN': 26, 'loaded': True, 'loadedTime': 3592.600000143051, 'positionName': 'RIGHT', 'positionCoords': [998.4, 335], 'bid': 8.85}]",45642.700000047684,1669841583556,grilled chicken strips,chickenfingers,9.35,8.85,-0.5,chickenfingers,1090.4000000953674,1091,1091.0,True,i,47255.40000009537,1612.7000000476837,1669841585168,1612,HRV,HRV_0300,2022-11-30 20:57:43
27,"[{'imgObject': {}, 'id': 'cherries', 'src': '/static/foodstim60/cherries.jpg', 'key': 'u', 'origWidth': 410, 'origHeight': 411, 'width': 410, 'height': 411, 'widthPercent': 0.45, 'rescaleHeight': False, 'trialN': 27, 'loaded': True, 'loadedTime': 3376.600000143051, 'positionName': 'LEFT', 'positionCoords': [511.6, 334.5], 'bid': 2.53}, {'imgObject': {}, 'id': 'eggsalad', 'src': '/static/foodstim60/eggsalad.jpg', 'key': 'i', 'origWidth': 410, 'origHeight': 409, 'width': 410, 'height': 409, 'widthPercent': 0.45, 'rescaleHeight': False, 'trialN': 27, 'loaded': True, 'loadedTime': 3645.100000143051, 'positionName': 'RIGHT', 'positionCoords': [998.4, 335.5], 'bid': 2.96}]",47255.700000047684,1669841585169,cherries,eggsalad,2.53,2.96,0.43000000000000016,eggsalad,1029.2999999523163,1030,1029.7999999523163,True,i,48793.60000014305,1537.9000000953674,1669841586707,1538,HRV,HRV_0300,2022-11-30 20:57:43
28,"[{'imgObject': {}, 'id': 'yogurt no spoon', 'src': '/static/foodstim60/yogurt no spoon.jpg', 'key': 'u', 'origWidth': 411, 'origHeight': 410, 'width': 411, 'height': 410, 'widthPercent': 0.45, 'rescaleHeight': False, 'trialN': 28, 'loaded': True, 'loadedTime': 3649.100000143051, 'positionName': 'LEFT', 'positionCoords': [510.6, 335], 'bid': 1.96}, {'imgObject': {}, 'id': 'sweetpotato', 'src': '/static/foodstim60/sweetpotato.jpg', 'key': 'i', 'origWidth': 410, 'origHeight': 410, 'width': 410, 'height': 410, 'widthPercent': 0.45, 'rescaleHeight': False, 'trialN': 28, 'loaded': True, 'loadedTime': 3616.2999999523163, 'positionName': 'RIGHT', 'positionCoords': [998.4, 335], 'bid': 4.59}]",48793.799999952316,1669841586707,yogurt no spoon,sweetpotato,1.96,4.59,2.63,sweetpotato,1899.3000001907349,1900,1900.0,True,i,51207.5,2413.7000000476837,1669841589121,2414,HRV,HRV_0300,2022-11-30 20:57:43
29,"[{'imgObject': {}, 'id': 'eggs', 'src': '/static/foodstim60/eggs.jpg', 'key': 'u', 'origWidth': 409, 'origHeight': 409, 'width': 409, 'height': 409, 'widthPercent': 0.45, 'rescaleHeight': False, 'trialN': 29, 'loaded': True, 'loadedTime': 3618.5, 'positionName': 'LEFT', 'positionCoords': [512.6, 335.5], 'bid': 6.05}, {'imgObject': {}, 'id': 'salmon', 'src': '/static/foodstim60/salmon.jpg', 'key': 'i', 'origWidth': 410, 'origHeight': 409, 'width': 410, 'height': 409, 'widthPercent': 0.45, 'rescaleHeight': False, 'trialN': 29, 'loaded': True, 'loadedTime': 3566.9000000953674, 'positionName': 'RIGHT', 'positionCoords': [998.4, 335.5], 'bid': 1.3}]",51207.60000014305,1669841589121,eggs,salmon,6.05,1.3,-4.75,eggs,989.1999998092651,989,989.5999999046326,True,u,52699.10000014305,1491.5,1669841590612,1491,HRV,HRV_0300,2022-11-30 20:57:43
30,"[{'imgObject': {}, 'id': 'froot loops w milk', 'src': '/static/foodstim60/froot loops w milk.jpg', 'key': 'u', 'origWidth': 410, 'origHeight': 410, 'width': 410, 'height': 410, 'widthPercent': 0.45, 'rescaleHeight': False, 'trialN': 30, 'loaded': True, 'loadedTime': 3613, 'positionName': 'LEFT', 'positionCoords': [511.6, 335], 'bid': 5.09}, {'imgObject': {}, 'id': 'shreddedwheatwithmilk', 'src': '/static/foodstim60/shreddedwheatwithmilk.jpg', 'key': 'i', 'origWidth': 410, 'origHeight': 410, 'width': 410, 'height': 410, 'widthPercent': 0.45, 'rescaleHeight': False, 'trialN': 30, 'loaded': True, 'loadedTime': 3657.7000000476837, 'positionName': 'RIGHT', 'positionCoords': [998.4, 335], 'bid': 5.04}]",52699.5,1669841590613,froot loops w milk,shreddedwheatwithmilk,5.09,5.04,-0.04999999999999982,froot loops w milk,1393.4000000953674,1393,1393.7000000476837,True,u,54607.40000009537,1907.9000000953674,1669841592520,1907,HRV,HRV_0300,2022-11-30 20:57:43
31,"[{'imgObject': {}, 'id': 'orange slices', 'src': '/static/foodstim60/orange slices.jpg', 'key': 'u', 'origWidth': 409, 'origHeight': 410, 'width': 409, 'height': 410, 'widthPercent': 0.45, 'rescaleHeight': False, 'trialN': 31, 'loaded': True, 'loadedTime': 3420.7000000476837, 'positionName': 'LEFT', 'positionCoords': [512.6, 335], 'bid': 7.48}, {'imgObject': {}, 'id': 'shreddedwheatwithmilk', 'src': '/static/foodstim60/shreddedwheatwithmilk.jpg', 'key': 'i', 'origWidth': 410, 'origHeight': 410, 'width': 410, 'height': 410, 'widthPercent': 0.45, 'rescaleHeight': False, 'trialN': 31, 'loaded': True, 'loadedTime': 3657.7999999523163, 'positionName': 'RIGHT', 'positionCoords': [998.4, 335], 'bid': 5.04}]",54607.90000009537,1669841592521,orange slices,shreddedwheatwithmilk,7.48,5.04,-2.4400000000000004,orange slices,1157.8999998569489,1159,1159.0999999046326,True,u,56274.0,1666.0999999046326,1669841594187,1666,HRV,HRV_0300,2022-11-30 20:57:43
32,"[{'imgObject': {}, 'id': 'Tribe humus pita', 'src': '/static/foodstim60/Tribe humus pita.jpg', 'key': 'u', 'origWidth': 411, 'origHeight': 411, 'width': 411, 'height': 411, 'widthPercent': 0.45, 'rescaleHeight': False, 'trialN': 32, 'loaded': True, 'loadedTime': 3401.600000143051, 'positionName': 'LEFT', 'positionCoords': [510.6, 334.5], 'bid': 4.5600000000000005}, {'imgObject': {}, 'id': 'cherry tomato', 'src': '/static/foodstim60/cherry tomato.jpg', 'key': 'i', 'origWidth': 410, 'origHeight': 410, 'width': 410, 'height': 410, 'widthPercent': 0.45, 'rescaleHeight': False, 'trialN': 32, 'loaded': True, 'loadedTime': 3555.5, 'positionName': 'RIGHT', 'positionCoords': [998.4, 335], 'bid': 4.51}]",56274.200000047684,1669841594187,Tribe humus pita,cherry tomato,4.5600000000000005,4.51,-0.05000000000000071,Tribe humus pita,1458.7999999523163,1460,1459.5999999046326,True,u,58240.799999952316,1966.5999999046326,1669841596154,1967,HRV,HRV_0300,2022-11-30 20:57:43
33,"[{'imgObject': {}, 'id': 'popsicles', 'src': '/static/foodstim60/popsicles.jpg', 'key': 'u', 'origWidth': 410, 'origHeight': 410, 'width': 410, 'height': 410, 'widthPercent': 0.45, 'rescaleHeight': False, 'trialN': 33, 'loaded': True, 'loadedTime': 3660.7000000476837, 'positionName': 'LEFT', 'positionCoords': [511.6, 335], 'bid': 5.2700000000000005}, {'imgObject': {}, 'id': 'baked potato', 'src': '/static/foodstim60/baked potato.jpg', 'key': 'i', 'origWidth': 409, 'origHeight': 410, 'width': 409, 'height': 410, 'widthPercent': 0.45, 'rescaleHeight': False, 'trialN': 33, 'loaded': True, 'loadedTime': 3607.5, 'positionName': 'RIGHT', 'positionCoords': [998.4, 335], 'bid': 5.13}]",58241.10000014305,1669841596154,popsicles,baked potato,5.2700000000000005,5.13,-0.14000000000000057,baked potato,1316.0,1317,1316.5999999046326,True,i,60073.700000047684,1832.5999999046326,1669841597987,1833,HRV,HRV_0300,2022-11-30 20:57:43
34,"[{'imgObject': {}, 'id': 'eggs', 'src': '/static/foodstim60/eggs.jpg', 'key': 'u', 'origWidth': 409, 'origHeight': 409, 'width': 409, 'height': 409, 'widthPercent': 0.45, 'rescaleHeight': False, 'trialN': 34, 'loaded': True, 'loadedTime': 3618.600000143051, 'positionName': 'LEFT', 'positionCoords': [512.6, 335.5], 'bid': 6.05}, {'imgObject': {}, 'id': 'ice cream sundae 002', 'src': '/static/foodstim60/ice cream sundae 002.jpg', 'key': 'i', 'origWidth': 409, 'origHeight': 409, 'width': 409, 'height': 409, 'widthPercent': 0.45, 'rescaleHeight': False, 'trialN': 34, 'loaded': True, 'loadedTime': 3662.9000000953674, 'positionName': 'RIGHT', 'positionCoords': [998.4, 335.5], 'bid': 6.0200000000000005}]",60073.90000009537,1669841597987,eggs,ice cream sundae 002,6.05,6.0200000000000005,-0.02999999999999936,eggs,1003.0999999046326,1004,1004.0,True,u,61591.299999952316,1517.3999998569489,1669841599504,1517,HRV,HRV_0300,2022-11-30 20:57:43
35,"[{'imgObject': {}, 'id': 'mango', 'src': '/static/foodstim60/mango.jpg', 'key': 'u', 'origWidth': 411, 'origHeight': 411, 'width': 411, 'height': 411, 'widthPercent': 0.45, 'rescaleHeight': False, 'trialN': 35, 'loaded': True, 'loadedTime': 3667.100000143051, 'positionName': 'LEFT', 'positionCoords': [510.6, 334.5], 'bid': 0.18}, {'imgObject': {}, 'id': 'fruitsalad', 'src': '/static/foodstim60/fruitsalad.jpg', 'key': 'i', 'origWidth': 410, 'origHeight': 410, 'width': 410, 'height': 410, 'widthPercent': 0.45, 'rescaleHeight': False, 'trialN': 35, 'loaded': True, 'loadedTime': 3483.2999999523163, 'positionName': 'RIGHT', 'positionCoords': [998.4, 335], 'bid': 0.17}]",61591.5,1669841599505,mango,fruitsalad,0.18,0.17,-0.009999999999999981,fruitsalad,1557.6000001430511,1558,1558.5,True,i,63657.40000009537,2065.9000000953674,1669841601570,2065,HRV,HRV_0300,2022-11-30 20:57:43
36,"[{'imgObject': {}, 'id': 'omelette', 'src': '/static/foodstim60/omelette.jpg', 'key': 'u', 'origWidth': 410, 'origHeight': 409, 'width': 410, 'height': 409, 'widthPercent': 0.45, 'rescaleHeight': False, 'trialN': 36, 'loaded': True, 'loadedTime': 3468.2000000476837, 'positionName': 'LEFT', 'positionCoords': [511.6, 335.5], 'bid': 5.72}, {'imgObject': {}, 'id': 'Tribe humus pita', 'src': '/static/foodstim60/Tribe humus pita.jpg', 'key': 'i', 'origWidth': 411, 'origHeight': 411, 'width': 411, 'height': 411, 'widthPercent': 0.45, 'rescaleHeight': False, 'trialN': 36, 'loaded': True, 'loadedTime': 3378.7000000476837, 'positionName': 'RIGHT', 'positionCoords': [998.4, 334.5], 'bid': 4.5600000000000005}]",63657.60000014305,1669841601571,omelette,Tribe humus pita,5.72,4.5600000000000005,-1.1599999999999993,Tribe humus pita,1323.5,1324,1324.1999998092651,True,i,65491.10000014305,1833.5,1669841603404,1833,HRV,HRV_0300,2022-11-30 20:57:43
37,"[{'imgObject': {}, 'id': 'cantaloupe', 'src': '/static/foodstim60/cantaloupe.jpg', 'key': 'u', 'origWidth': 409, 'origHeight': 409, 'width': 409, 'height': 409, 'widthPercent': 0.45, 'rescaleHeight': False, 'trialN': 37, 'loaded': True, 'loadedTime': 3668.9000000953674, 'positionName': 'LEFT', 'positionCoords': [512.6, 335.5], 'bid': 0.08}, {'imgObject': {}, 'id': 'raisin bran w milk', 'src': '/static/foodstim60/raisin bran w milk.jpg', 'key': 'i', 'origWidth': 411, 'origHeight': 411, 'width': 411, 'height': 411, 'widthPercent': 0.45, 'rescaleHeight': False, 'trialN': 37, 'loaded': True, 'loadedTime': 3493.600000143051, 'positionName': 'RIGHT', 'positionCoords': [998.4, 334.5], 'bid': 2.29}]",65491.40000009537,1669841603404,cantaloupe,raisin bran w milk,0.08,2.29,2.21,raisin bran w milk,906.0999999046326,907,906.7999999523163,True,i,66899.0,1407.5999999046326,1669841604812,1408,HRV,HRV_0300,2022-11-30 20:57:43
38,"[{'imgObject': {}, 'id': 'mashed potato', 'src': '/static/foodstim60/mashed potato.jpg', 'key': 'u', 'origWidth': 409, 'origHeight': 409, 'width': 409, 'height': 409, 'widthPercent': 0.45, 'rescaleHeight': False, 'trialN': 38, 'loaded': True, 'loadedTime': 3427.7999999523163, 'positionName': 'LEFT', 'positionCoords': [512.6, 335.5], 'bid': 6.54}, {'imgObject': {}, 'id': 'yogurt no spoon', 'src': '/static/foodstim60/yogurt no spoon.jpg', 'key': 'i', 'origWidth': 411, 'origHeight': 410, 'width': 411, 'height': 410, 'widthPercent': 0.45, 'rescaleHeight': False, 'trialN': 38, 'loaded': True, 'loadedTime': 3648.5, 'positionName': 'RIGHT', 'positionCoords': [998.4, 335], 'bid': 1.96}]",66899.29999995232,1669841604812,mashed potato,yogurt no spoon,6.54,1.96,-4.58,mashed potato,993.8000001907349,995,994.6000001430511,True,u,68403.70000004768,1504.4000000953674,1669841606317,1505,HRV,HRV_0300,2022-11-30 20:57:43
39,"[{'imgObject': {}, 'id': 'cherry tomato', 'src': '/static/foodstim60/cherry tomato.jpg', 'key': 'u', 'origWidth': 410, 'origHeight': 410, 'width': 410, 'height': 410, 'widthPercent': 0.45, 'rescaleHeight': False, 'trialN': 39, 'loaded': True, 'loadedTime': 3554.9000000953674, 'positionName': 'LEFT', 'positionCoords': [511.6, 335], 'bid': 4.51}, {'imgObject': {}, 'id': 'hotdog w must', 'src': '/static/foodstim60/hotdog w must.jpg', 'key': 'i', 'origWidth': 409, 'origHeight': 409, 'width': 409, 'height': 409, 'widthPercent': 0.45, 'rescaleHeight': False, 'trialN': 39, 'loaded': True, 'loadedTime': 3669.7000000476837, 'positionName': 'RIGHT', 'positionCoords': [998.4, 335.5], 'bid': 5.68}]",68404.0,1669841606317,cherry tomato,hotdog w must,4.51,5.68,1.17,hotdog w must,817.0,818,817.9000000953674,True,i,69737.79999995232,1333.7999999523163,1669841607651,1334,HRV,HRV_0300,2022-11-30 20:57:43
40,"[{'imgObject': {}, 'id': 'granola w milk', 'src': '/static/foodstim60/granola w milk.jpg', 'key': 'u', 'origWidth': 410, 'origHeight': 410, 'width': 410, 'height': 410, 'widthPercent': 0.45, 'rescaleHeight': False, 'trialN': 40, 'loaded': True, 'loadedTime': 3673.7999999523163, 'positionName': 'LEFT', 'positionCoords': [511.6, 335], 'bid': 1.78}, {'imgObject': {}, 'id': 'salmon', 'src': '/static/foodstim60/salmon.jpg', 'key': 'i', 'origWidth': 410, 'origHeight': 409, 'width': 410, 'height': 409, 'widthPercent': 0.45, 'rescaleHeight': False, 'trialN': 40, 'loaded': True, 'loadedTime': 3566.4000000953674, 'positionName': 'RIGHT', 'positionCoords': [998.4, 335.5], 'bid': 1.3}]",69737.90000009537,1669841607651,granola w milk,salmon,1.78,1.3,-0.48,salmon,891.2000000476837,892,892.2999999523163,True,i,71151.29999995232,1413.3999998569489,1669841609064,1413,HRV,HRV_0300,2022-11-30 20:57:43
41,"[{'imgObject': {}, 'id': 'edamame', 'src': '/static/foodstim60/edamame.jpg', 'key': 'u', 'origWidth': 409, 'origHeight': 410, 'width': 409, 'height': 410, 'widthPercent': 0.45, 'rescaleHeight': False, 'trialN': 41, 'loaded': True, 'loadedTime': 3602.2999999523163, 'positionName': 'LEFT', 'positionCoords': [512.6, 335], 'bid': 4.1}, {'imgObject': {}, 'id': 'chicken nuggets2', 'src': '/static/foodstim60/chicken nuggets2.jpg', 'key': 'i', 'origWidth': 410, 'origHeight': 409, 'width': 410, 'height': 409, 'widthPercent': 0.45, 'rescaleHeight': False, 'trialN': 41, 'loaded': True, 'loadedTime': 3674.100000143051, 'positionName': 'RIGHT', 'positionCoords': [998.4, 335.5], 'bid': 8.68}]",71151.60000014305,1669841609065,edamame,chicken nuggets2,4.1,8.68,4.58,chicken nuggets2,925.3999998569489,926,926.1999998092651,True,i,72590.90000009537,1439.2999999523163,1669841610504,1439,HRV,HRV_0300,2022-11-30 20:57:43
42,"[{'imgObject': {}, 'id': 'cantaloupe', 'src': '/static/foodstim60/cantaloupe.jpg', 'key': 'u', 'origWidth': 409, 'origHeight': 409, 'width': 409, 'height': 409, 'widthPercent': 0.45, 'rescaleHeight': False, 'trialN': 42, 'loaded': True, 'loadedTime': 3668.9000000953674, 'positionName': 'LEFT', 'positionCoords': [512.6, 335.5], 'bid': 0.08}, {'imgObject': {}, 'id': 'sushi w_condiments', 'src': '/static/foodstim60/sushi w_condiments.jpg', 'key': 'i', 'origWidth': 410, 'origHeight': 410, 'width': 410, 'height': 410, 'widthPercent': 0.45, 'rescaleHeight': False, 'trialN': 42, 'loaded': True, 'loadedTime': 3373.100000143051, 'positionName': 'RIGHT', 'positionCoords': [998.4, 335], 'bid': 0.12}]",72591.29999995232,1669841610504,cantaloupe,sushi w_condiments,0.08,0.12,0.039999999999999994,cantaloupe,1485.8000001907349,1487,1486.4000000953674,True,u,74590.0,1998.7000000476837,1669841612503,1999,HRV,HRV_0300,2022-11-30 20:57:43
43,"[{'imgObject': {}, 'id': 'blueberries', 'src': '/static/foodstim60/blueberries.jpg', 'key': 'u', 'origWidth': 411, 'origHeight': 411, 'width': 411, 'height': 411, 'widthPercent': 0.45, 'rescaleHeight': False, 'trialN': 43, 'loaded': True, 'loadedTime': 3364, 'positionName': 'LEFT', 'positionCoords': [510.6, 334.5], 'bid': 2.95}, {'imgObject': {}, 'id': 'cherries', 'src': '/static/foodstim60/cherries.jpg', 'key': 'i', 'origWidth': 410, 'origHeight': 411, 'width': 410, 'height': 411, 'widthPercent': 0.45, 'rescaleHeight': False, 'trialN': 43, 'loaded': True, 'loadedTime': 3375.4000000953674, 'positionName': 'RIGHT', 'positionCoords': [998.4, 334.5], 'bid': 2.53}]",74590.20000004768,1669841612503,blueberries,cherries,2.95,2.53,-0.4200000000000004,blueberries,1054.7999999523163,1056,1055.5,True,u,76157.70000004768,1567.5,1669841614071,1568,HRV,HRV_0300,2022-11-30 20:57:43
44,"[{'imgObject': {}, 'id': 'turkey sandwich', 'src': '/static/foodstim60/turkey sandwich.jpg', 'key': 'u', 'origWidth': 409, 'origHeight': 409, 'width': 409, 'height': 409, 'widthPercent': 0.45, 'rescaleHeight': False, 'trialN': 44, 'loaded': True, 'loadedTime': 3676.5, 'positionName': 'LEFT', 'positionCoords': [512.6, 335.5], 'bid': 8.42}, {'imgObject': {}, 'id': 'rigatoni and sauce', 'src': '/static/foodstim60/rigatoni and sauce.jpg', 'key': 'i', 'origWidth': 410, 'origHeight': 411, 'width': 410, 'height': 411, 'widthPercent': 0.45, 'rescaleHeight': False, 'trialN': 44, 'loaded': True, 'loadedTime': 3682.2999999523163, 'positionName': 'RIGHT', 'positionCoords': [998.4, 334.5], 'bid': 8.36}]",76157.90000009537,1669841614071,turkey sandwich,rigatoni and sauce,8.42,8.36,-0.0600000000000005,turkey sandwich,855.0999999046326,856,855.5999999046326,True,u,77523.29999995232,1365.3999998569489,1669841615436,1365,HRV,HRV_0300,2022-11-30 20:57:43
45,"[{'imgObject': {}, 'id': 'mac & cheese', 'src': '/static/foodstim60/mac & cheese.jpg', 'key': 'u', 'origWidth': 410, 'origHeight': 410, 'width': 410, 'height': 410, 'widthPercent': 0.45, 'rescaleHeight': False, 'trialN': 45, 'loaded': True, 'loadedTime': 3500.9000000953674, 'positionName': 'LEFT', 'positionCoords': [511.6, 335], 'bid': 9.85}, {'imgObject': {}, 'id': 'salad w chicken', 'src': '/static/foodstim60/salad w chicken.jpg', 'key': 'i', 'origWidth': 411, 'origHeight': 411, 'width': 411, 'height': 411, 'widthPercent': 0.45, 'rescaleHeight': False, 'trialN': 45, 'loaded': True, 'loadedTime': 3610.2999999523163, 'positionName': 'RIGHT', 'positionCoords': [998.4, 334.5], 'bid': 9.37}]",77523.79999995232,1669841615437,mac & cheese,salad w chicken,9.85,9.37,-0.4800000000000004,salad w chicken,977.2000000476837,978,978.2000000476837,True,i,79007.5,1483.7000000476837,1669841616921,1484,HRV,HRV_0300,2022-11-30 20:57:43
46,"[{'imgObject': {}, 'id': 'cocktailshrimp', 'src': '/static/foodstim60/cocktailshrimp.jpg', 'key': 'u', 'origWidth': 410, 'origHeight': 410, 'width': 410, 'height': 410, 'widthPercent': 0.45, 'rescaleHeight': False, 'trialN': 46, 'loaded': True, 'loadedTime': 3707.5, 'positionName': 'LEFT', 'positionCoords': [511.6, 335], 'bid': 0.66}, {'imgObject': {}, 'id': 'kiwi', 'src': '/static/foodstim60/kiwi.jpg', 'key': 'i', 'origWidth': 410, 'origHeight': 410, 'width': 410, 'height': 410, 'widthPercent': 0.45, 'rescaleHeight': False, 'trialN': 46, 'loaded': True, 'loadedTime': 3245.600000143051, 'positionName': 'RIGHT', 'positionCoords': [998.4, 335], 'bid': 0.28}]",79007.79999995232,1669841616921,cocktailshrimp,kiwi,0.66,0.28,-0.38,kiwi,2061.2000000476837,2051,2062.0,True,i,81591.5,2583.7000000476837,1669841619494,2573,HRV,HRV_0300,2022-11-30 20:57:43
47,"[{'imgObject': {}, 'id': 'omelette', 'src': '/static/foodstim60/omelette.jpg', 'key': 'u', 'origWidth': 410, 'origHeight': 409, 'width': 410, 'height': 409, 'widthPercent': 0.45, 'rescaleHeight': False, 'trialN': 47, 'loaded': True, 'loadedTime': 3432.5, 'positionName': 'LEFT', 'positionCoords': [511.6, 335.5], 'bid': 5.72}, {'imgObject': {}, 'id': 'chicken nuggets2', 'src': '/static/foodstim60/chicken nuggets2.jpg', 'key': 'i', 'origWidth': 410, 'origHeight': 409, 'width': 410, 'height': 409, 'widthPercent': 0.45, 'rescaleHeight': False, 'trialN': 47, 'loaded': True, 'loadedTime': 3675.5, 'positionName': 'RIGHT', 'positionCoords': [998.4, 335.5], 'bid': 8.68}]",81591.79999995232,1669841619494,omelette,chicken nuggets2,5.72,8.68,2.96,chicken nuggets2,789.2000000476837,790,789.8000001907349,True,i,82890.5,1298.7000000476837,1669841620793,1299,HRV,HRV_0300,2022-11-30 20:57:43
48,"[{'imgObject': {}, 'id': 'mashed potato', 'src': '/static/foodstim60/mashed potato.jpg', 'key': 'u', 'origWidth': 409, 'origHeight': 409, 'width': 409, 'height': 409, 'widthPercent': 0.45, 'rescaleHeight': False, 'trialN': 48, 'loaded': True, 'loadedTime': 3430.2000000476837, 'positionName': 'LEFT', 'positionCoords': [512.6, 335.5], 'bid': 6.54}, {'imgObject': {}, 'id': 'veggieswithdip', 'src': '/static/foodstim60/veggieswithdip.jpg', 'key': 'i', 'origWidth': 409, 'origHeight': 409, 'width': 409, 'height': 409, 'widthPercent': 0.45, 'rescaleHeight': False, 'trialN': 48, 'loaded': True, 'loadedTime': 3488.100000143051, 'positionName': 'RIGHT', 'positionCoords': [998.4, 335.5], 'bid': 6.22}]",82890.70000004768,1669841620793,mashed potato,veggieswithdip,6.54,6.22,-0.3200000000000003,mashed potato,1290.2999999523163,1291,1290.9000000953674,True,u,84701.0,1810.2999999523163,1669841622603,1810,HRV,HRV_0300,2022-11-30 20:57:43
49,"[{'imgObject': {}, 'id': 'tacos', 'src': '/static/foodstim60/tacos.jpg', 'key': 'u', 'origWidth': 411, 'origHeight': 411, 'width': 411, 'height': 411, 'widthPercent': 0.45, 'rescaleHeight': False, 'trialN': 49, 'loaded': True, 'loadedTime': 3204.100000143051, 'positionName': 'LEFT', 'positionCoords': [510.6, 334.5], 'bid': 6.4}, {'imgObject': {}, 'id': 'mashed potato', 'src': '/static/foodstim60/mashed potato.jpg', 'key': 'i', 'origWidth': 409, 'origHeight': 409, 'width': 409, 'height': 409, 'widthPercent': 0.45, 'rescaleHeight': False, 'trialN': 49, 'loaded': True, 'loadedTime': 3426.9000000953674, 'positionName': 'RIGHT', 'positionCoords': [998.4, 335.5], 'bid': 6.54}]",84701.40000009537,1669841622604,tacos,mashed potato,6.4,6.54,0.13999999999999968,tacos,799.5999999046326,800,800.3999998569489,True,u,86007.29999995232,1305.8999998569489,1669841623910,1306,HRV,HRV_0300,2022-11-30 20:57:43
50,"[{'imgObject': {}, 'id': 'corn cob', 'src': '/static/foodstim60/corn cob.jpg', 'key': 'u', 'origWidth': 411, 'origHeight': 411, 'width': 411, 'height': 411, 'widthPercent': 0.45, 'rescaleHeight': False, 'trialN': 50, 'loaded': True, 'loadedTime': 3709.7000000476837, 'positionName': 'LEFT', 'positionCoords': [510.6, 334.5], 'bid': 4.33}, {'imgObject': {}, 'id': 'olives', 'src': '/static/foodstim60/olives.jpg', 'key': 'i', 'origWidth': 410, 'origHeight': 410, 'width': 410, 'height': 410, 'widthPercent': 0.45, 'rescaleHeight': False, 'trialN': 50, 'loaded': True, 'loadedTime': 3556.600000143051, 'positionName': 'RIGHT', 'positionCoords': [998.4, 335], 'bid': 4.28}]",86007.60000014305,1669841623910,corn cob,olives,4.33,4.28,-0.04999999999999982,corn cob,1118.0,1119,1119.0999999046326,True,u,87641.0,1633.3999998569489,1669841625543,1633,HRV,HRV_0300,2022-11-30 20:57:43
51,"[{'imgObject': {}, 'id': 'tacos', 'src': '/static/foodstim60/tacos.jpg', 'key': 'u', 'origWidth': 411, 'origHeight': 411, 'width': 411, 'height': 411, 'widthPercent': 0.45, 'rescaleHeight': False, 'trialN': 51, 'loaded': True, 'loadedTime': 3204.7000000476837, 'positionName': 'LEFT', 'positionCoords': [510.6, 334.5], 'bid': 6.4}, {'imgObject': {}, 'id': 'burrito', 'src': '/static/foodstim60/burrito.jpg', 'key': 'i', 'origWidth': 410, 'origHeight': 410, 'width': 410, 'height': 410, 'widthPercent': 0.45, 'rescaleHeight': False, 'trialN': 51, 'loaded': True, 'loadedTime': 3303, 'positionName': 'RIGHT', 'positionCoords': [998.4, 335], 'bid': 9.75}]",87641.29999995232,1669841625544,tacos,burrito,6.4,9.75,3.3499999999999996,burrito,1099.7000000476837,1100,1100.5,True,i,89257.20000004768,1615.9000000953674,1669841627160,1616,HRV,HRV_0300,2022-11-30 20:57:43
52,"[{'imgObject': {}, 'id': 'mac & cheese', 'src': '/static/foodstim60/mac & cheese.jpg', 'key': 'u', 'origWidth': 410, 'origHeight': 410, 'width': 410, 'height': 410, 'widthPercent': 0.45, 'rescaleHeight': False, 'trialN': 52, 'loaded': True, 'loadedTime': 3536.2000000476837, 'positionName': 'LEFT', 'positionCoords': [511.6, 335], 'bid': 9.85}, {'imgObject': {}, 'id': 'mashed potato', 'src': '/static/foodstim60/mashed potato.jpg', 'key': 'i', 'origWidth': 409, 'origHeight': 409, 'width': 409, 'height': 409, 'widthPercent': 0.45, 'rescaleHeight': False, 'trialN': 52, 'loaded': True, 'loadedTime': 3430.7000000476837, 'positionName': 'RIGHT', 'positionCoords': [998.4, 335.5], 'bid': 6.54}]",89257.5,1669841627160,mac & cheese,mashed potato,9.85,6.54,-3.3099999999999996,mac & cheese,947.6000001430511,948,948.2000000476837,True,u,90715.60000014305,1458.1000001430511,1669841628618,1458,HRV,HRV_0300,2022-11-30 20:57:43
53,"[{'imgObject': {}, 'id': 'sushi w_condiments', 'src': '/static/foodstim60/sushi w_condiments.jpg', 'key': 'u', 'origWidth': 410, 'origHeight': 410, 'width': 410, 'height': 410, 'widthPercent': 0.45, 'rescaleHeight': False, 'trialN': 53, 'loaded': True, 'loadedTime': 3374.2000000476837, 'positionName': 'LEFT', 'positionCoords': [511.6, 335], 'bid': 0.12}, {'imgObject': {}, 'id': 'seaweed', 'src': '/static/foodstim60/seaweed.jpg', 'key': 'i', 'origWidth': 410, 'origHeight': 410, 'width': 410, 'height': 410, 'widthPercent': 0.45, 'rescaleHeight': False, 'trialN': 53, 'loaded': True, 'loadedTime': 3560.5, 'positionName': 'RIGHT', 'positionCoords': [998.4, 335], 'bid': 0.16}]",90715.79999995232,1669841628618,sushi w_condiments,seaweed,0.12,0.16,0.04000000000000001,sushi w_condiments,1385.2000000476837,1386,1385.7000000476837,True,u,92606.5,1890.7000000476837,1669841630509,1891,HRV,HRV_0300,2022-11-30 20:57:43
54,"[{'imgObject': {}, 'id': 'cheerios', 'src': '/static/foodstim60/cheerios.jpg', 'key': 'u', 'origWidth': 409, 'origHeight': 410, 'width': 409, 'height': 410, 'widthPercent': 0.45, 'rescaleHeight': False, 'trialN': 54, 'loaded': True, 'loadedTime': 3491.9000000953674, 'positionName': 'LEFT', 'positionCoords': [512.6, 335], 'bid': 5.0200000000000005}, {'imgObject': {}, 'id': 'Grapes', 'src': '/static/foodstim60/Grapes.jpg', 'key': 'i', 'origWidth': 411, 'origHeight': 411, 'width': 411, 'height': 411, 'widthPercent': 0.45, 'rescaleHeight': False, 'trialN': 54, 'loaded': True, 'loadedTime': 3499, 'positionName': 'RIGHT', 'positionCoords': [998.4, 334.5], 'bid': 2.13}]",92606.79999995232,1669841630509,cheerios,Grapes,5.0200000000000005,2.13,-2.8900000000000006,cheerios,958.2000000476837,959,958.7000000476837,True,u,94072.79999995232,1466.0,1669841631975,1466,HRV,HRV_0300,2022-11-30 20:57:43
55,"[{'imgObject': {}, 'id': 'omelette', 'src': '/static/foodstim60/omelette.jpg', 'key': 'u', 'origWidth': 410, 'origHeight': 409, 'width': 410, 'height': 409, 'widthPercent': 0.45, 'rescaleHeight': False, 'trialN': 55, 'loaded': True, 'loadedTime': 3468, 'positionName': 'LEFT', 'positionCoords': [511.6, 335.5], 'bid': 5.72}, {'imgObject': {}, 'id': 'hotdog w must', 'src': '/static/foodstim60/hotdog w must.jpg', 'key': 'i', 'origWidth': 409, 'origHeight': 409, 'width': 409, 'height': 409, 'widthPercent': 0.45, 'rescaleHeight': False, 'trialN': 55, 'loaded': True, 'loadedTime': 3671, 'positionName': 'RIGHT', 'positionCoords': [998.4, 335.5], 'bid': 5.68}]",94073.20000004768,1669841631976,omelette,hotdog w must,5.72,5.68,-0.040000000000000036,hotdog w must,1067.7999999523163,1068,1068.2999999523163,True,i,95657.79999995232,1584.5999999046326,1669841633560,1584,HRV,HRV_0300,2022-11-30 20:57:43
56,"[{'imgObject': {}, 'id': 'pear', 'src': '/static/foodstim60/pear.jpg', 'key': 'u', 'origWidth': 411, 'origHeight': 410, 'width': 411, 'height': 410, 'widthPercent': 0.45, 'rescaleHeight': False, 'trialN': 56, 'loaded': True, 'loadedTime': 3721.7999999523163, 'positionName': 'LEFT', 'positionCoords': [510.6, 335], 'bid': 1.89}, {'imgObject': {}, 'id': 'yogurt no spoon', 'src': '/static/foodstim60/yogurt no spoon.jpg', 'key': 'i', 'origWidth': 411, 'origHeight': 410, 'width': 411, 'height': 410, 'widthPercent': 0.45, 'rescaleHeight': False, 'trialN': 56, 'loaded': True, 'loadedTime': 3648.9000000953674, 'positionName': 'RIGHT', 'positionCoords': [998.4, 335], 'bid': 1.96}]",95657.90000009537,1669841633560,pear,yogurt no spoon,1.89,1.96,0.07000000000000006,yogurt no spoon,1467.0999999046326,1468,1467.5999999046326,True,i,97640.0,1982.0999999046326,1669841635542,1982,HRV,HRV_0300,2022-11-30 20:57:43
57,"[{'imgObject': {}, 'id': 'mango', 'src': '/static/foodstim60/mango.jpg', 'key': 'u', 'origWidth': 411, 'origHeight': 411, 'width': 411, 'height': 411, 'widthPercent': 0.45, 'rescaleHeight': False, 'trialN': 57, 'loaded': True, 'loadedTime': 3665.5, 'positionName': 'LEFT', 'positionCoords': [510.6, 334.5], 'bid': 0.18}, {'imgObject': {}, 'id': 'raisin bran w milk', 'src': '/static/foodstim60/raisin bran w milk.jpg', 'key': 'i', 'origWidth': 411, 'origHeight': 411, 'width': 411, 'height': 411, 'widthPercent': 0.45, 'rescaleHeight': False, 'trialN': 57, 'loaded': True, 'loadedTime': 3496.7999999523163, 'positionName': 'RIGHT', 'positionCoords': [998.4, 334.5], 'bid': 2.29}]",97640.29999995232,1669841635543,mango,raisin bran w milk,0.18,2.29,2.11,raisin bran w milk,1157.2000000476837,1158,1158.0,True,i,99307.10000014305,1666.8000001907349,1669841637209,1666,HRV,HRV_0300,2022-11-30 20:57:43
58,"[{'imgObject': {}, 'id': 'froot loops w milk', 'src': '/static/foodstim60/froot loops w milk.jpg', 'key': 'u', 'origWidth': 410, 'origHeight': 410, 'width': 410, 'height': 410, 'widthPercent': 0.45, 'rescaleHeight': False, 'trialN': 58, 'loaded': True, 'loadedTime': 3612, 'positionName': 'LEFT', 'positionCoords': [511.6, 335], 'bid': 5.09}, {'imgObject': {}, 'id': 'corn cob', 'src': '/static/foodstim60/corn cob.jpg', 'key': 'i', 'origWidth': 411, 'origHeight': 411, 'width': 411, 'height': 411, 'widthPercent': 0.45, 'rescaleHeight': False, 'trialN': 58, 'loaded': True, 'loadedTime': 3709.7000000476837, 'positionName': 'RIGHT', 'positionCoords': [998.4, 334.5], 'bid': 4.33}]",99307.5,1669841637210,froot loops w milk,corn cob,5.09,4.33,-0.7599999999999998,froot loops w milk,785.4000000953674,786,785.7000000476837,True,u,100606.90000009537,1299.4000000953674,1669841638509,1299,HRV,HRV_0300,2022-11-30 20:57:43
59,"[{'imgObject': {}, 'id': 'steak', 'src': '/static/foodstim60/steak.jpg', 'key': 'u', 'origWidth': 410, 'origHeight': 410, 'width': 410, 'height': 410, 'widthPercent': 0.45, 'rescaleHeight': False, 'trialN': 59, 'loaded': True, 'loadedTime': 3259.4000000953674, 'positionName': 'LEFT', 'positionCoords': [511.6, 335], 'bid': 9.92}, {'imgObject': {}, 'id': 'chickenfingers', 'src': '/static/foodstim60/chickenfingers.jpg', 'key': 'i', 'origWidth': 410, 'origHeight': 410, 'width': 410, 'height': 410, 'widthPercent': 0.45, 'rescaleHeight': False, 'trialN': 59, 'loaded': True, 'loadedTime': 3592.2999999523163, 'positionName': 'RIGHT', 'positionCoords': [998.4, 335], 'bid': 8.85}]",100607.29999995232,1669841638510,steak,chickenfingers,9.92,8.85,-1.0700000000000003,steak,701.7000000476837,702,702.3000001907349,True,u,101832.70000004768,1225.4000000953674,1669841639735,1225,HRV,HRV_0300,2022-11-30 20:57:43
60,"[{'imgObject': {}, 'id': 'orange slices', 'src': '/static/foodstim60/orange slices.jpg', 'key': 'u', 'origWidth': 409, 'origHeight': 410, 'width': 409, 'height': 410, 'widthPercent': 0.45, 'rescaleHeight': False, 'trialN': 60, 'loaded': True, 'loadedTime': 3420.600000143051, 'positionName': 'LEFT', 'positionCoords': [512.6, 335], 'bid': 7.48}, {'imgObject': {}, 'id': 'bagel and cc', 'src': '/static/foodstim60/bagel and cc.jpg', 'key': 'i', 'origWidth': 410, 'origHeight': 410, 'width': 410, 'height': 410, 'widthPercent': 0.45, 'rescaleHeight': False, 'trialN': 60, 'loaded': True, 'loadedTime': 3312.2999999523163, 'positionName': 'RIGHT', 'positionCoords': [998.4, 335], 'bid': 8.14}]",101833.0,1669841639735,orange slices,bagel and cc,7.48,8.14,0.6600000000000001,bagel and cc,1012.0,1013,1012.6000001430511,True,i,103356.29999995232,1523.2999999523163,1669841641259,1524,HRV,HRV_0300,2022-11-30 20:57:43
61,"[{'imgObject': {}, 'id': 'pear', 'src': '/static/foodstim60/pear.jpg', 'key': 'u', 'origWidth': 411, 'origHeight': 410, 'width': 411, 'height': 410, 'widthPercent': 0.45, 'rescaleHeight': False, 'trialN': 61, 'loaded': True, 'loadedTime': 3719.7999999523163, 'positionName': 'LEFT', 'positionCoords': [510.6, 335], 'bid': 1.89}, {'imgObject': {}, 'id': 'eggsalad', 'src': '/static/foodstim60/eggsalad.jpg', 'key': 'i', 'origWidth': 410, 'origHeight': 409, 'width': 410, 'height': 409, 'widthPercent': 0.45, 'rescaleHeight': False, 'trialN': 61, 'loaded': True, 'loadedTime': 3621.5, 'positionName': 'RIGHT', 'positionCoords': [998.4, 335.5], 'bid': 2.96}]",103356.60000014305,1669841641259,pear,eggsalad,1.89,2.96,1.07,eggsalad,752.3999998569489,753,753.1999998092651,True,i,104622.0,1265.3999998569489,1669841642524,1265,HRV,HRV_0300,2022-11-30 20:57:43
62,"[{'imgObject': {}, 'id': 'burger', 'src': '/static/foodstim60/burger.jpg', 'key': 'u', 'origWidth': 409, 'origHeight': 409, 'width': 409, 'height': 409, 'widthPercent': 0.45, 'rescaleHeight': False, 'trialN': 62, 'loaded': True, 'loadedTime': 3723.9000000953674, 'positionName': 'LEFT', 'positionCoords': [512.6, 335.5], 'bid': 8.22}, {'imgObject': {}, 'id': 'turkeysandwich', 'src': '/static/foodstim60/turkeysandwich.jpg', 'key': 'i', 'origWidth': 409, 'origHeight': 409, 'width': 409, 'height': 409, 'widthPercent': 0.45, 'rescaleHeight': False, 'trialN': 62, 'loaded': True, 'loadedTime': 3552.100000143051, 'positionName': 'RIGHT', 'positionCoords': [998.4, 335.5], 'bid': 8.21}]",104622.29999995232,1669841642525,burger,turkeysandwich,8.22,8.21,-0.009999999999999787,turkeysandwich,1206.6000001430511,1207,1207.4000000953674,True,i,106349.79999995232,1727.5,1669841644252,1727,HRV,HRV_0300,2022-11-30 20:57:43
63,"[{'imgObject': {}, 'id': 'kiwi', 'src': '/static/foodstim60/kiwi.jpg', 'key': 'u', 'origWidth': 410, 'origHeight': 410, 'width': 410, 'height': 410, 'widthPercent': 0.45, 'rescaleHeight': False, 'trialN': 63, 'loaded': True, 'loadedTime': 3240.7000000476837, 'positionName': 'LEFT', 'positionCoords': [511.6, 335], 'bid': 0.28}, {'imgObject': {}, 'id': 'fruitsalad', 'src': '/static/foodstim60/fruitsalad.jpg', 'key': 'i', 'origWidth': 410, 'origHeight': 410, 'width': 410, 'height': 410, 'widthPercent': 0.45, 'rescaleHeight': False, 'trialN': 63, 'loaded': True, 'loadedTime': 3482.100000143051, 'positionName': 'RIGHT', 'positionCoords': [998.4, 335], 'bid': 0.17}]",106350.29999995232,1669841644253,kiwi,fruitsalad,0.28,0.17,-0.11000000000000001,fruitsalad,1206.6000001430511,1207,1207.5,True,i,108073.90000009537,1723.6000001430511,1669841645976,1723,HRV,HRV_0300,2022-11-30 20:57:43
64,"[{'imgObject': {}, 'id': 'eggs', 'src': '/static/foodstim60/eggs.jpg', 'key': 'u', 'origWidth': 409, 'origHeight': 409, 'width': 409, 'height': 409, 'widthPercent': 0.45, 'rescaleHeight': False, 'trialN': 64, 'loaded': True, 'loadedTime': 3617, 'positionName': 'LEFT', 'positionCoords': [512.6, 335.5], 'bid': 6.05}, {'imgObject': {}, 'id': 'omelette', 'src': '/static/foodstim60/omelette.jpg', 'key': 'i', 'origWidth': 410, 'origHeight': 409, 'width': 410, 'height': 409, 'widthPercent': 0.45, 'rescaleHeight': False, 'trialN': 64, 'loaded': True, 'loadedTime': 3433, 'positionName': 'RIGHT', 'positionCoords': [998.4, 335.5], 'bid': 5.72}]",108074.10000014305,1669841645976,eggs,omelette,6.05,5.72,-0.33000000000000007,eggs,955.3999998569489,957,956.2999999523163,True,u,109540.0,1465.8999998569489,1669841647442,1466,HRV,HRV_0300,2022-11-30 20:57:43
65,"[{'imgObject': {}, 'id': 'cheerios', 'src': '/static/foodstim60/cheerios.jpg', 'key': 'u', 'origWidth': 409, 'origHeight': 410, 'width': 409, 'height': 410, 'widthPercent': 0.45, 'rescaleHeight': False, 'trialN': 65, 'loaded': True, 'loadedTime': 3490.5, 'positionName': 'LEFT', 'positionCoords': [512.6, 335], 'bid': 5.0200000000000005}, {'imgObject': {}, 'id': 'froot loops w milk', 'src': '/static/foodstim60/froot loops w milk.jpg', 'key': 'i', 'origWidth': 410, 'origHeight': 410, 'width': 410, 'height': 410, 'widthPercent': 0.45, 'rescaleHeight': False, 'trialN': 65, 'loaded': True, 'loadedTime': 3611.7999999523163, 'positionName': 'RIGHT', 'positionCoords': [998.4, 335], 'bid': 5.09}]",109540.20000004768,1669841647443,cheerios,froot loops w milk,5.0200000000000005,5.09,0.0699999999999994,froot loops w milk,1288.7999999523163,1289,1289.7999999523163,True,i,111340.5,1800.2999999523163,1669841649243,1800,HRV,HRV_0300,2022-11-30 20:57:43
66,"[{'imgObject': {}, 'id': 'grilled chicken strips', 'src': '/static/foodstim60/grilled chicken strips.jpg', 'key': 'u', 'origWidth': 410, 'origHeight': 411, 'width': 410, 'height': 411, 'widthPercent': 0.45, 'rescaleHeight': False, 'trialN': 66, 'loaded': True, 'loadedTime': 3413.4000000953674, 'positionName': 'LEFT', 'positionCoords': [511.6, 334.5], 'bid': 9.35}, {'imgObject': {}, 'id': 'apple slices', 'src': '/static/foodstim60/apple slices.jpg', 'key': 'i', 'origWidth': 409, 'origHeight': 410, 'width': 409, 'height': 410, 'widthPercent': 0.45, 'rescaleHeight': False, 'trialN': 66, 'loaded': True, 'loadedTime': 3725.2000000476837, 'positionName': 'RIGHT', 'positionCoords': [998.4, 335], 'bid': 9.01}]",111340.90000009537,1669841649243,grilled chicken strips,apple slices,9.35,9.01,-0.33999999999999986,grilled chicken strips,1023.8999998569489,1025,1024.2999999523163,True,u,112873.0,1532.0999999046326,1669841650775,1532,HRV,HRV_0300,2022-11-30 20:57:43
67,"[{'imgObject': {}, 'id': 'rigatoni', 'src': '/static/foodstim60/rigatoni.jpg', 'key': 'u', 'origWidth': 411, 'origHeight': 411, 'width': 411, 'height': 411, 'widthPercent': 0.45, 'rescaleHeight': False, 'trialN': 67, 'loaded': True, 'loadedTime': 3725.600000143051, 'positionName': 'LEFT', 'positionCoords': [510.6, 334.5], 'bid': 5.64}, {'imgObject': {}, 'id': 'popsicles', 'src': '/static/foodstim60/popsicles.jpg', 'key': 'i', 'origWidth': 410, 'origHeight': 410, 'width': 410, 'height': 410, 'widthPercent': 0.45, 'rescaleHeight': False, 'trialN': 67, 'loaded': True, 'loadedTime': 3659.7999999523163, 'positionName': 'RIGHT', 'positionCoords': [998.4, 335], 'bid': 5.2700000000000005}]",112873.20000004768,1669841650776,rigatoni,popsicles,5.64,5.2700000000000005,-0.3699999999999992,rigatoni,1659.7000000476837,1660,1660.5999999046326,True,u,115041.20000004768,2168.0,1669841652944,2168,HRV,HRV_0300,2022-11-30 20:57:43
68,"[{'imgObject': {}, 'id': 'mango', 'src': '/static/foodstim60/mango.jpg', 'key': 'u', 'origWidth': 411, 'origHeight': 411, 'width': 411, 'height': 411, 'widthPercent': 0.45, 'rescaleHeight': False, 'trialN': 68, 'loaded': True, 'loadedTime': 3665.5, 'positionName': 'LEFT', 'positionCoords': [510.6, 334.5], 'bid': 0.18}, {'imgObject': {}, 'id': 'rigatoni', 'src': '/static/foodstim60/rigatoni.jpg', 'key': 'i', 'origWidth': 411, 'origHeight': 411, 'width': 411, 'height': 411, 'widthPercent': 0.45, 'rescaleHeight': False, 'trialN': 68, 'loaded': True, 'loadedTime': 3726.9000000953674, 'positionName': 'RIGHT', 'positionCoords': [998.4, 334.5], 'bid': 5.64}]",115041.70000004768,1669841652944,mango,rigatoni,0.18,5.64,5.46,rigatoni,819.2999999523163,820,819.7999999523163,True,i,116368.60000014305,1326.9000000953674,1669841654271,1327,HRV,HRV_0300,2022-11-30 20:57:43
69,"[{'imgObject': {}, 'id': 'cherries', 'src': '/static/foodstim60/cherries.jpg', 'key': 'u', 'origWidth': 410, 'origHeight': 411, 'width': 410, 'height': 411, 'widthPercent': 0.45, 'rescaleHeight': False, 'trialN': 69, 'loaded': True, 'loadedTime': 3377.4000000953674, 'positionName': 'LEFT', 'positionCoords': [511.6, 334.5], 'bid': 2.53}, {'imgObject': {}, 'id': 'kiwi', 'src': '/static/foodstim60/kiwi.jpg', 'key': 'i', 'origWidth': 410, 'origHeight': 410, 'width': 410, 'height': 410, 'widthPercent': 0.45, 'rescaleHeight': False, 'trialN': 69, 'loaded': True, 'loadedTime': 3239.5, 'positionName': 'RIGHT', 'positionCoords': [998.4, 335], 'bid': 0.28}]",116368.90000009537,1669841654271,cherries,kiwi,2.53,0.28,-2.25,cherries,1004.0999999046326,1005,1004.7000000476837,True,u,117890.5,1521.5999999046326,1669841655793,1522,HRV,HRV_0300,2022-11-30 20:57:43
70,"[{'imgObject': {}, 'id': 'apple slices', 'src': '/static/foodstim60/apple slices.jpg', 'key': 'u', 'origWidth': 409, 'origHeight': 410, 'width': 409, 'height': 410, 'widthPercent': 0.45, 'rescaleHeight': False, 'trialN': 70, 'loaded': True, 'loadedTime': 3725.2999999523163, 'positionName': 'LEFT', 'positionCoords': [512.6, 335], 'bid': 9.01}, {'imgObject': {}, 'id': 'chicken nuggets2', 'src': '/static/foodstim60/chicken nuggets2.jpg', 'key': 'i', 'origWidth': 410, 'origHeight': 409, 'width': 410, 'height': 409, 'widthPercent': 0.45, 'rescaleHeight': False, 'trialN': 70, 'loaded': True, 'loadedTime': 3675.7000000476837, 'positionName': 'RIGHT', 'positionCoords': [998.4, 335.5], 'bid': 8.68}]",117890.79999995232,1669841655793,apple slices,chicken nuggets2,9.01,8.68,-0.33000000000000007,chicken nuggets2,890.2000000476837,892,891.4000000953674,True,i,119289.90000009537,1399.1000001430511,1669841657192,1399,HRV,HRV_0300,2022-11-30 20:57:43
71,"[{'imgObject': {}, 'id': 'chickenfingers', 'src': '/static/foodstim60/chickenfingers.jpg', 'key': 'u', 'origWidth': 410, 'origHeight': 410, 'width': 410, 'height': 410, 'widthPercent': 0.45, 'rescaleHeight': False, 'trialN': 71, 'loaded': True, 'loadedTime': 3592, 'positionName': 'LEFT', 'positionCoords': [511.6, 335], 'bid': 8.85}, {'imgObject': {}, 'id': 'luckycharms', 'src': '/static/foodstim60/luckycharms.jpg', 'key': 'i', 'origWidth': 410, 'origHeight': 409, 'width': 410, 'height': 409, 'widthPercent': 0.45, 'rescaleHeight': False, 'trialN': 71, 'loaded': True, 'loadedTime': 3729.100000143051, 'positionName': 'RIGHT', 'positionCoords': [998.4, 335.5], 'bid': 4.25}]",119290.10000014305,1669841657193,chickenfingers,luckycharms,8.85,4.25,-4.6,chickenfingers,851.2999999523163,852,852.1999998092651,True,u,120652.70000004768,1362.5999999046326,1669841658555,1362,HRV,HRV_0300,2022-11-30 20:57:43
72,"[{'imgObject': {}, 'id': 'luckycharms', 'src': '/static/foodstim60/luckycharms.jpg', 'key': 'u', 'origWidth': 410, 'origHeight': 409, 'width': 410, 'height': 409, 'widthPercent': 0.45, 'rescaleHeight': False, 'trialN': 72, 'loaded': True, 'loadedTime': 3727.2000000476837, 'positionName': 'LEFT', 'positionCoords': [511.6, 335.5], 'bid': 4.25}, {'imgObject': {}, 'id': 'edamame', 'src': '/static/foodstim60/edamame.jpg', 'key': 'i', 'origWidth': 409, 'origHeight': 410, 'width': 409, 'height': 410, 'widthPercent': 0.45, 'rescaleHeight': False, 'trialN': 72, 'loaded': True, 'loadedTime': 3603.4000000953674, 'positionName': 'RIGHT', 'positionCoords': [998.4, 335], 'bid': 4.1}]",120652.90000009537,1669841658555,luckycharms,edamame,4.25,4.1,-0.15000000000000036,luckycharms,1528.0999999046326,1529,1528.7000000476837,True,u,122700.90000009537,2048.0,1669841660603,2048,HRV,HRV_0300,2022-11-30 20:57:43
73,"[{'imgObject': {}, 'id': 'rigatoni and sauce', 'src': '/static/foodstim60/rigatoni and sauce.jpg', 'key': 'u', 'origWidth': 410, 'origHeight': 411, 'width': 410, 'height': 411, 'widthPercent': 0.45, 'rescaleHeight': False, 'trialN': 73, 'loaded': True, 'loadedTime': 3683.7999999523163, 'positionName': 'LEFT', 'positionCoords': [511.6, 334.5], 'bid': 8.36}, {'imgObject': {}, 'id': 'roastedpotatoes', 'src': '/static/foodstim60/roastedpotatoes.jpg', 'key': 'i', 'origWidth': 409, 'origHeight': 410, 'width': 409, 'height': 410, 'widthPercent': 0.45, 'rescaleHeight': False, 'trialN': 73, 'loaded': True, 'loadedTime': 3730.600000143051, 'positionName': 'RIGHT', 'positionCoords': [998.4, 335], 'bid': 3.79}]",122701.10000014305,1669841660604,rigatoni and sauce,roastedpotatoes,8.36,3.79,-4.569999999999999,rigatoni and sauce,1207.6999998092651,1207,1207.8999998569489,True,u,124419.79999995232,1718.6999998092651,1669841662322,1718,HRV,HRV_0300,2022-11-30 20:57:43
74,"[{'imgObject': {}, 'id': 'veggieswithdip', 'src': '/static/foodstim60/veggieswithdip.jpg', 'key': 'u', 'origWidth': 409, 'origHeight': 409, 'width': 409, 'height': 409, 'widthPercent': 0.45, 'rescaleHeight': False, 'trialN': 74, 'loaded': True, 'loadedTime': 3487.600000143051, 'positionName': 'LEFT', 'positionCoords': [512.6, 335.5], 'bid': 6.22}, {'imgObject': {}, 'id': 'turkey sandwich', 'src': '/static/foodstim60/turkey sandwich.jpg', 'key': 'i', 'origWidth': 409, 'origHeight': 409, 'width': 409, 'height': 409, 'widthPercent': 0.45, 'rescaleHeight': False, 'trialN': 74, 'loaded': True, 'loadedTime': 3681.4000000953674, 'positionName': 'RIGHT', 'positionCoords': [998.4, 335.5], 'bid': 8.42}]",124420.10000014305,1669841662323,veggieswithdip,turkey sandwich,6.22,8.42,2.2,turkey sandwich,888.8999998569489,889,889.5,True,i,125823.29999995232,1403.1999998092651,1669841663726,1403,HRV,HRV_0300,2022-11-30 20:57:43
75,"[{'imgObject': {}, 'id': 'rigatoni and sauce', 'src': '/static/foodstim60/rigatoni and sauce.jpg', 'key': 'u', 'origWidth': 410, 'origHeight': 411, 'width': 410, 'height': 411, 'widthPercent': 0.45, 'rescaleHeight': False, 'trialN': 75, 'loaded': True, 'loadedTime': 3706.100000143051, 'positionName': 'LEFT', 'positionCoords': [511.6, 334.5], 'bid': 8.36}, {'imgObject': {}, 'id': 'turkeysandwich', 'src': '/static/foodstim60/turkeysandwich.jpg', 'key': 'i', 'origWidth': 409, 'origHeight': 409, 'width': 409, 'height': 409, 'widthPercent': 0.45, 'rescaleHeight': False, 'trialN': 75, 'loaded': True, 'loadedTime': 3550, 'positionName': 'RIGHT', 'positionCoords': [998.4, 335.5], 'bid': 8.21}]",125823.60000014305,1669841663726,rigatoni and sauce,turkeysandwich,8.36,8.21,-0.14999999999999858,turkeysandwich,765.3999998569489,766,766.2999999523163,True,i,127107.90000009537,1284.2999999523163,1669841665010,1284,HRV,HRV_0300,2022-11-30 20:57:43
76,"[{'imgObject': {}, 'id': 'blackbeanswithrice', 'src': '/static/foodstim60/blackbeanswithrice.jpg', 'key': 'u', 'origWidth': 410, 'origHeight': 410, 'width': 410, 'height': 410, 'widthPercent': 0.45, 'rescaleHeight': False, 'trialN': 76, 'loaded': True, 'loadedTime': 3568.7000000476837, 'positionName': 'LEFT', 'positionCoords': [511.6, 335], 'bid': 6.67}, {'imgObject': {}, 'id': 'apple slices', 'src': '/static/foodstim60/apple slices.jpg', 'key': 'i', 'origWidth': 409, 'origHeight': 410, 'width': 409, 'height': 410, 'widthPercent': 0.45, 'rescaleHeight': False, 'trialN': 76, 'loaded': True, 'loadedTime': 3724, 'positionName': 'RIGHT', 'positionCoords': [998.4, 335], 'bid': 9.01}]",127108.20000004768,1669841665011,blackbeanswithrice,apple slices,6.67,9.01,2.34,blackbeanswithrice,1000.7000000476837,1001,1001.5999999046326,True,u,128621.70000004768,1513.5,1669841666524,1513,HRV,HRV_0300,2022-11-30 20:57:43
77,"[{'imgObject': {}, 'id': 'steak', 'src': '/static/foodstim60/steak.jpg', 'key': 'u', 'origWidth': 410, 'origHeight': 410, 'width': 410, 'height': 410, 'widthPercent': 0.45, 'rescaleHeight': False, 'trialN': 77, 'loaded': True, 'loadedTime': 3260.100000143051, 'positionName': 'LEFT', 'positionCoords': [511.6, 335], 'bid': 9.92}, {'imgObject': {}, 'id': 'blackbeanswithrice', 'src': '/static/foodstim60/blackbeanswithrice.jpg', 'key': 'i', 'origWidth': 410, 'origHeight': 410, 'width': 410, 'height': 410, 'widthPercent': 0.45, 'rescaleHeight': False, 'trialN': 77, 'loaded': True, 'loadedTime': 3569.2000000476837, 'positionName': 'RIGHT', 'positionCoords': [998.4, 335], 'bid': 6.67}]",128621.90000009537,1669841666524,steak,blackbeanswithrice,9.92,6.67,-3.25,steak,687.0999999046326,688,687.7000000476837,True,u,129823.20000004768,1201.2999999523163,1669841667726,1202,HRV,HRV_0300,2022-11-30 20:57:43
78,"[{'imgObject': {}, 'id': 'Grapes', 'src': '/static/foodstim60/Grapes.jpg', 'key': 'u', 'origWidth': 411, 'origHeight': 411, 'width': 411, 'height': 411, 'widthPercent': 0.45, 'rescaleHeight': False, 'trialN': 78, 'loaded': True, 'loadedTime': 3497.4000000953674, 'positionName': 'LEFT', 'positionCoords': [510.6, 334.5], 'bid': 2.13}, {'imgObject': {}, 'id': 'fruitsalad', 'src': '/static/foodstim60/fruitsalad.jpg', 'key': 'i', 'origWidth': 410, 'origHeight': 410, 'width': 410, 'height': 410, 'widthPercent': 0.45, 'rescaleHeight': False, 'trialN': 78, 'loaded': True, 'loadedTime': 3483.9000000953674, 'positionName': 'RIGHT', 'positionCoords': [998.4, 335], 'bid': 0.17}]",129823.5,1669841667726,Grapes,fruitsalad,2.13,0.17,-1.96,Grapes,1302.1000001430511,1303,1303.0,True,u,131641.20000004768,1817.7000000476837,1669841669544,1818,HRV,HRV_0300,2022-11-30 20:57:43
79,"[{'imgObject': {}, 'id': 'granola w milk', 'src': '/static/foodstim60/granola w milk.jpg', 'key': 'u', 'origWidth': 410, 'origHeight': 410, 'width': 410, 'height': 410, 'widthPercent': 0.45, 'rescaleHeight': False, 'trialN': 79, 'loaded': True, 'loadedTime': 3674.100000143051, 'positionName': 'LEFT', 'positionCoords': [511.6, 335], 'bid': 1.78}, {'imgObject': {}, 'id': 'mango', 'src': '/static/foodstim60/mango.jpg', 'key': 'i', 'origWidth': 411, 'origHeight': 411, 'width': 411, 'height': 411, 'widthPercent': 0.45, 'rescaleHeight': False, 'trialN': 79, 'loaded': True, 'loadedTime': 3663.7999999523163, 'positionName': 'RIGHT', 'positionCoords': [998.4, 334.5], 'bid': 0.18}]",131641.60000014305,1669841669544,granola w milk,mango,1.78,0.18,-1.6,granola w milk,803.0999999046326,804,803.5,True,u,132956.60000014305,1315.0,1669841670859,1315,HRV,HRV_0300,2022-11-30 20:57:43
80,"[{'imgObject': {}, 'id': 'shreddedwheatwithmilk', 'src': '/static/foodstim60/shreddedwheatwithmilk.jpg', 'key': 'u', 'origWidth': 410, 'origHeight': 410, 'width': 410, 'height': 410, 'widthPercent': 0.45, 'rescaleHeight': False, 'trialN': 80, 'loaded': True, 'loadedTime': 3649.2999999523163, 'positionName': 'LEFT', 'positionCoords': [511.6, 335], 'bid': 5.04}, {'imgObject': {}, 'id': 'roastedpotatoes', 'src': '/static/foodstim60/roastedpotatoes.jpg', 'key': 'i', 'origWidth': 409, 'origHeight': 410, 'width': 409, 'height': 410, 'widthPercent': 0.45, 'rescaleHeight': False, 'trialN': 80, 'loaded': True, 'loadedTime': 3730.4000000953674, 'positionName': 'RIGHT', 'positionCoords': [998.4, 335], 'bid': 3.79}]",132957.0,1669841670859,shreddedwheatwithmilk,roastedpotatoes,5.04,3.79,-1.25,shreddedwheatwithmilk,880.0,881,880.7999999523163,True,u,134345.10000014305,1388.1000001430511,1669841672248,1389,HRV,HRV_0300,2022-11-30 20:57:43
81,"[{'imgObject': {}, 'id': 'strawberries', 'src': '/static/foodstim60/strawberries.jpg', 'key': 'u', 'origWidth': 410, 'origHeight': 410, 'width': 410, 'height': 410, 'widthPercent': 0.45, 'rescaleHeight': False, 'trialN': 81, 'loaded': True, 'loadedTime': 3732.7999999523163, 'positionName': 'LEFT', 'positionCoords': [511.6, 335], 'bid': 1.3}, {'imgObject': {}, 'id': 'banana', 'src': '/static/foodstim60/banana.jpg', 'key': 'i', 'origWidth': 410, 'origHeight': 410, 'width': 410, 'height': 410, 'widthPercent': 0.45, 'rescaleHeight': False, 'trialN': 81, 'loaded': True, 'loadedTime': 3264.2000000476837, 'positionName': 'RIGHT', 'positionCoords': [998.4, 335], 'bid': 6.2}]",134345.29999995232,1669841672248,strawberries,banana,1.3,6.2,4.9,banana,859.6000001430511,860,860.5,True,i,135708.20000004768,1362.9000000953674,1669841673611,1363,HRV,HRV_0300,2022-11-30 20:57:43
82,"[{'imgObject': {}, 'id': 'raspberries', 'src': '/static/foodstim60/raspberries.jpg', 'key': 'u', 'origWidth': 411, 'origHeight': 411, 'width': 411, 'height': 411, 'widthPercent': 0.45, 'rescaleHeight': False, 'trialN': 82, 'loaded': True, 'loadedTime': 3362.100000143051, 'positionName': 'LEFT', 'positionCoords': [510.6, 334.5], 'bid': 3.28}, {'imgObject': {}, 'id': 'eggsalad', 'src': '/static/foodstim60/eggsalad.jpg', 'key': 'i', 'origWidth': 410, 'origHeight': 409, 'width': 410, 'height': 409, 'widthPercent': 0.45, 'rescaleHeight': False, 'trialN': 82, 'loaded': True, 'loadedTime': 3619.9000000953674, 'positionName': 'RIGHT', 'positionCoords': [998.4, 335.5], 'bid': 2.96}]",135708.70000004768,1669841673611,raspberries,eggsalad,3.28,2.96,-0.31999999999999984,eggsalad,912.2000000476837,913,913.0,True,i,137140.79999995232,1432.0999999046326,1669841675043,1432,HRV,HRV_0300,2022-11-30 20:57:43
83,"[{'imgObject': {}, 'id': 'salmon', 'src': '/static/foodstim60/salmon.jpg', 'key': 'u', 'origWidth': 410, 'origHeight': 409, 'width': 410, 'height': 409, 'widthPercent': 0.45, 'rescaleHeight': False, 'trialN': 83, 'loaded': True, 'loadedTime': 3566.2999999523163, 'positionName': 'LEFT', 'positionCoords': [511.6, 335.5], 'bid': 1.3}, {'imgObject': {}, 'id': 'raspberries', 'src': '/static/foodstim60/raspberries.jpg', 'key': 'i', 'origWidth': 411, 'origHeight': 411, 'width': 411, 'height': 411, 'widthPercent': 0.45, 'rescaleHeight': False, 'trialN': 83, 'loaded': True, 'loadedTime': 3358.100000143051, 'positionName': 'RIGHT', 'positionCoords': [998.4, 334.5], 'bid': 3.28}]",137141.0,1669841675043,salmon,raspberries,1.3,3.28,1.9799999999999998,salmon,887.9000000953674,889,888.7999999523163,True,u,138544.60000014305,1403.6000001430511,1669841676447,1404,HRV,HRV_0300,2022-11-30 20:57:43
84,"[{'imgObject': {}, 'id': 'Tribe humus pita', 'src': '/static/foodstim60/Tribe humus pita.jpg', 'key': 'u', 'origWidth': 411, 'origHeight': 411, 'width': 411, 'height': 411, 'widthPercent': 0.45, 'rescaleHeight': False, 'trialN': 84, 'loaded': True, 'loadedTime': 3401.7999999523163, 'positionName': 'LEFT', 'positionCoords': [510.6, 334.5], 'bid': 4.5600000000000005}, {'imgObject': {}, 'id': 'pear', 'src': '/static/foodstim60/pear.jpg', 'key': 'i', 'origWidth': 411, 'origHeight': 410, 'width': 411, 'height': 410, 'widthPercent': 0.45, 'rescaleHeight': False, 'trialN': 84, 'loaded': True, 'loadedTime': 3721.9000000953674, 'positionName': 'RIGHT', 'positionCoords': [998.4, 335], 'bid': 1.89}]",138545.0,1669841676447,Tribe humus pita,pear,4.5600000000000005,1.89,-2.670000000000001,Tribe humus pita,1011.9000000953674,1013,1012.7999999523163,True,u,140073.70000004768,1528.7000000476837,1669841677976,1529,HRV,HRV_0300,2022-11-30 20:57:43
85,"[{'imgObject': {}, 'id': 'eggsalad', 'src': '/static/foodstim60/eggsalad.jpg', 'key': 'u', 'origWidth': 410, 'origHeight': 409, 'width': 410, 'height': 409, 'widthPercent': 0.45, 'rescaleHeight': False, 'trialN': 85, 'loaded': True, 'loadedTime': 3621.100000143051, 'positionName': 'LEFT', 'positionCoords': [511.6, 335.5], 'bid': 2.96}, {'imgObject': {}, 'id': 'lox', 'src': '/static/foodstim60/lox.jpg', 'key': 'i', 'origWidth': 410, 'origHeight': 411, 'width': 410, 'height': 411, 'widthPercent': 0.45, 'rescaleHeight': False, 'trialN': 85, 'loaded': True, 'loadedTime': 3735.5, 'positionName': 'RIGHT', 'positionCoords': [998.4, 334.5], 'bid': 1.28}]",140073.90000009537,1669841677976,eggsalad,lox,2.96,1.28,-1.68,eggsalad,875.0,876,875.3999998569489,True,u,141472.90000009537,1399.0,1669841679386,1410,HRV,HRV_0300,2022-11-30 20:57:43
86,"[{'imgObject': {}, 'id': 'chickenfingers', 'src': '/static/foodstim60/chickenfingers.jpg', 'key': 'u', 'origWidth': 410, 'origHeight': 410, 'width': 410, 'height': 410, 'widthPercent': 0.45, 'rescaleHeight': False, 'trialN': 86, 'loaded': True, 'loadedTime': 3569.4000000953674, 'positionName': 'LEFT', 'positionCoords': [511.6, 335], 'bid': 8.85}, {'imgObject': {}, 'id': 'chicken nuggets2', 'src': '/static/foodstim60/chicken nuggets2.jpg', 'key': 'i', 'origWidth': 410, 'origHeight': 409, 'width': 410, 'height': 409, 'widthPercent': 0.45, 'rescaleHeight': False, 'trialN': 86, 'loaded': True, 'loadedTime': 3676.4000000953674, 'positionName': 'RIGHT', 'positionCoords': [998.4, 335.5], 'bid': 8.68}]",141473.20000004768,1669841679386,chickenfingers,chicken nuggets2,8.85,8.68,-0.16999999999999993,chickenfingers,812.2999999523163,813,813.0,True,u,142809.20000004768,1336.0,1669841680722,1336,HRV,HRV_0300,2022-11-30 20:57:43
87,"[{'imgObject': {}, 'id': 'seaweed', 'src': '/static/foodstim60/seaweed.jpg', 'key': 'u', 'origWidth': 410, 'origHeight': 410, 'width': 410, 'height': 410, 'widthPercent': 0.45, 'rescaleHeight': False, 'trialN': 87, 'loaded': True, 'loadedTime': 3564.100000143051, 'positionName': 'LEFT', 'positionCoords': [511.6, 335], 'bid': 0.16}, {'imgObject': {}, 'id': 'eggsalad', 'src': '/static/foodstim60/eggsalad.jpg', 'key': 'i', 'origWidth': 410, 'origHeight': 409, 'width': 410, 'height': 409, 'widthPercent': 0.45, 'rescaleHeight': False, 'trialN': 87, 'loaded': True, 'loadedTime': 3621.4000000953674, 'positionName': 'RIGHT', 'positionCoords': [998.4, 335.5], 'bid': 2.96}]",142809.40000009537,1669841680723,seaweed,eggsalad,0.16,2.96,2.8,eggsalad,1011.5,1012,1012.2999999523163,True,i,144340.60000014305,1531.2000000476837,1669841682254,1531,HRV,HRV_0300,2022-11-30 20:57:43
88,"[{'imgObject': {}, 'id': 'rigatoni and sauce', 'src': '/static/foodstim60/rigatoni and sauce.jpg', 'key': 'u', 'origWidth': 410, 'origHeight': 411, 'width': 410, 'height': 411, 'widthPercent': 0.45, 'rescaleHeight': False, 'trialN': 88, 'loaded': True, 'loadedTime': 3683.5, 'positionName': 'LEFT', 'positionCoords': [511.6, 334.5], 'bid': 8.36}, {'imgObject': {}, 'id': 'rigatoni', 'src': '/static/foodstim60/rigatoni.jpg', 'key': 'i', 'origWidth': 411, 'origHeight': 411, 'width': 411, 'height': 411, 'widthPercent': 0.45, 'rescaleHeight': False, 'trialN': 88, 'loaded': True, 'loadedTime': 3727, 'positionName': 'RIGHT', 'positionCoords': [998.4, 334.5], 'bid': 5.64}]",144340.79999995232,1669841682254,rigatoni and sauce,rigatoni,8.36,5.64,-2.7199999999999998,rigatoni and sauce,968.0,968,968.3000001907349,True,u,145812.29999995232,1471.5,1669841683725,1471,HRV,HRV_0300,2022-11-30 20:57:43
89,"[{'imgObject': {}, 'id': 'sweetpotato', 'src': '/static/foodstim60/sweetpotato.jpg', 'key': 'u', 'origWidth': 410, 'origHeight': 410, 'width': 410, 'height': 410, 'widthPercent': 0.45, 'rescaleHeight': False, 'trialN': 89, 'loaded': True, 'loadedTime': 3616.100000143051, 'positionName': 'LEFT', 'positionCoords': [511.6, 335], 'bid': 4.59}, {'imgObject': {}, 'id': 'cheerios', 'src': '/static/foodstim60/cheerios.jpg', 'key': 'i', 'origWidth': 409, 'origHeight': 410, 'width': 409, 'height': 410, 'widthPercent': 0.45, 'rescaleHeight': False, 'trialN': 89, 'loaded': True, 'loadedTime': 3491.2000000476837, 'positionName': 'RIGHT', 'positionCoords': [998.4, 335], 'bid': 5.0200000000000005}]",145812.60000014305,1669841683726,sweetpotato,cheerios,4.59,5.0200000000000005,0.4300000000000006,cheerios,928.2999999523163,929,929.0999999046326,True,i,147256.70000004768,1444.0999999046326,1669841685170,1444,HRV,HRV_0300,2022-11-30 20:57:43
90,"[{'imgObject': {}, 'id': 'shreddedwheatwithmilk', 'src': '/static/foodstim60/shreddedwheatwithmilk.jpg', 'key': 'u', 'origWidth': 410, 'origHeight': 410, 'width': 410, 'height': 410, 'widthPercent': 0.45, 'rescaleHeight': False, 'trialN': 90, 'loaded': True, 'loadedTime': 3657.600000143051, 'positionName': 'LEFT', 'positionCoords': [511.6, 335], 'bid': 5.04}, {'imgObject': {}, 'id': 'olives', 'src': '/static/foodstim60/olives.jpg', 'key': 'i', 'origWidth': 410, 'origHeight': 410, 'width': 410, 'height': 410, 'widthPercent': 0.45, 'rescaleHeight': False, 'trialN': 90, 'loaded': True, 'loadedTime': 3558.9000000953674, 'positionName': 'RIGHT', 'positionCoords': [998.4, 335], 'bid': 4.28}]",186934.40000009537,1669841724848,shreddedwheatwithmilk,olives,5.04,4.28,-0.7599999999999998,shreddedwheatwithmilk,1118.5999999046326,1119,1119.5999999046326,True,u,188559.40000009537,1625.0,1669841726473,1625,HRV,HRV_0300,2022-11-30 20:57:43
91,"[{'imgObject': {}, 'id': 'bagel and cc', 'src': '/static/foodstim60/bagel and cc.jpg', 'key': 'u', 'origWidth': 410, 'origHeight': 410, 'width': 410, 'height': 410, 'widthPercent': 0.45, 'rescaleHeight': False, 'trialN': 91, 'loaded': True, 'loadedTime': 3313.7999999523163, 'positionName': 'LEFT', 'positionCoords': [511.6, 335], 'bid': 8.14}, {'imgObject': {}, 'id': 'baked potato', 'src': '/static/foodstim60/baked potato.jpg', 'key': 'i', 'origWidth': 409, 'origHeight': 410, 'width': 409, 'height': 410, 'widthPercent': 0.45, 'rescaleHeight': False, 'trialN': 91, 'loaded': True, 'loadedTime': 3607.4000000953674, 'positionName': 'RIGHT', 'positionCoords': [998.4, 335], 'bid': 5.13}]",188559.60000014305,1669841726473,bagel and cc,baked potato,8.14,5.13,-3.0100000000000007,baked potato,1093.2999999523163,1094,1094.0999999046326,True,i,190174.29999995232,1614.6999998092651,1669841728087,1614,HRV,HRV_0300,2022-11-30 20:57:43
92,"[{'imgObject': {}, 'id': 'avocado', 'src': '/static/foodstim60/avocado.jpg', 'key': 'u', 'origWidth': 409, 'origHeight': 409, 'width': 409, 'height': 409, 'widthPercent': 0.45, 'rescaleHeight': False, 'trialN': 92, 'loaded': True, 'loadedTime': 3737.9000000953674, 'positionName': 'LEFT', 'positionCoords': [512.6, 335.5], 'bid': 0.12}, {'imgObject': {}, 'id': 'cantaloupe', 'src': '/static/foodstim60/cantaloupe.jpg', 'key': 'i', 'origWidth': 409, 'origHeight': 409, 'width': 409, 'height': 409, 'widthPercent': 0.45, 'rescaleHeight': False, 'trialN': 92, 'loaded': True, 'loadedTime': 3668.9000000953674, 'positionName': 'RIGHT', 'positionCoords': [998.4, 335.5], 'bid': 0.08}]",190174.5,1669841728088,avocado,cantaloupe,0.12,0.08,-0.039999999999999994,cantaloupe,1222.2999999523163,1222,1222.7000000476837,True,i,191908.20000004768,1733.7000000476837,1669841729821,1733,HRV,HRV_0300,2022-11-30 20:57:43
93,"[{'imgObject': {}, 'id': 'cheerios', 'src': '/static/foodstim60/cheerios.jpg', 'key': 'u', 'origWidth': 409, 'origHeight': 410, 'width': 409, 'height': 410, 'widthPercent': 0.45, 'rescaleHeight': False, 'trialN': 93, 'loaded': True, 'loadedTime': 3488.7999999523163, 'positionName': 'LEFT', 'positionCoords': [512.6, 335], 'bid': 5.0200000000000005}, {'imgObject': {}, 'id': 'rigatoni', 'src': '/static/foodstim60/rigatoni.jpg', 'key': 'i', 'origWidth': 411, 'origHeight': 411, 'width': 411, 'height': 411, 'widthPercent': 0.45, 'rescaleHeight': False, 'trialN': 93, 'loaded': True, 'loadedTime': 3727.100000143051, 'positionName': 'RIGHT', 'positionCoords': [998.4, 334.5], 'bid': 5.64}]",191908.5,1669841729822,cheerios,rigatoni,5.0200000000000005,5.64,0.6199999999999992,cheerios,880.4000000953674,881,881.2999999523163,True,u,193307.5,1399.0,1669841731221,1399,HRV,HRV_0300,2022-11-30 20:57:43
94,"[{'imgObject': {}, 'id': 'tacos', 'src': '/static/foodstim60/tacos.jpg', 'key': 'u', 'origWidth': 411, 'origHeight': 411, 'width': 411, 'height': 411, 'widthPercent': 0.45, 'rescaleHeight': False, 'trialN': 94, 'loaded': True, 'loadedTime': 3203.2999999523163, 'positionName': 'LEFT', 'positionCoords': [510.6, 334.5], 'bid': 6.4}, {'imgObject': {}, 'id': 'chicken nuggets2', 'src': '/static/foodstim60/chicken nuggets2.jpg', 'key': 'i', 'origWidth': 410, 'origHeight': 409, 'width': 410, 'height': 409, 'widthPercent': 0.45, 'rescaleHeight': False, 'trialN': 94, 'loaded': True, 'loadedTime': 3675.2999999523163, 'positionName': 'RIGHT', 'positionCoords': [998.4, 335.5], 'bid': 8.68}]",193307.70000004768,1669841731221,tacos,chicken nuggets2,6.4,8.68,2.2799999999999994,chicken nuggets2,1249.2000000476837,1250,1250.0,True,i,195074.20000004768,1766.5,1669841732987,1766,HRV,HRV_0300,2022-11-30 20:57:43
95,"[{'imgObject': {}, 'id': 'strawberries', 'src': '/static/foodstim60/strawberries.jpg', 'key': 'u', 'origWidth': 410, 'origHeight': 410, 'width': 410, 'height': 410, 'widthPercent': 0.45, 'rescaleHeight': False, 'trialN': 95, 'loaded': True, 'loadedTime': 3732.9000000953674, 'positionName': 'LEFT', 'positionCoords': [511.6, 335], 'bid': 1.3}, {'imgObject': {}, 'id': 'granola w milk', 'src': '/static/foodstim60/granola w milk.jpg', 'key': 'i', 'origWidth': 410, 'origHeight': 410, 'width': 410, 'height': 410, 'widthPercent': 0.45, 'rescaleHeight': False, 'trialN': 95, 'loaded': True, 'loadedTime': 3672, 'positionName': 'RIGHT', 'positionCoords': [998.4, 335], 'bid': 1.78}]",195074.70000004768,1669841732988,strawberries,granola w milk,1.3,1.78,0.48,granola w milk,1306.7000000476837,1307,1307.2999999523163,True,i,196891.70000004768,1817.0,1669841734805,1817,HRV,HRV_0300,2022-11-30 20:57:43
96,"[{'imgObject': {}, 'id': 'grilled chicken strips', 'src': '/static/foodstim60/grilled chicken strips.jpg', 'key': 'u', 'origWidth': 410, 'origHeight': 411, 'width': 410, 'height': 411, 'widthPercent': 0.45, 'rescaleHeight': False, 'trialN': 96, 'loaded': True, 'loadedTime': 3415.2000000476837, 'positionName': 'LEFT', 'positionCoords': [511.6, 334.5], 'bid': 9.35}, {'imgObject': {}, 'id': 'burger', 'src': '/static/foodstim60/burger.jpg', 'key': 'i', 'origWidth': 409, 'origHeight': 409, 'width': 409, 'height': 409, 'widthPercent': 0.45, 'rescaleHeight': False, 'trialN': 96, 'loaded': True, 'loadedTime': 3723.5, 'positionName': 'RIGHT', 'positionCoords': [998.4, 335.5], 'bid': 8.22}]",196891.90000009537,1669841734805,grilled chicken strips,burger,9.35,8.22,-1.129999999999999,grilled chicken strips,1065.0,1066,1065.7999999523163,True,u,198466.0,1574.0999999046326,1669841736379,1574,HRV,HRV_0300,2022-11-30 20:57:43
97,"[{'imgObject': {}, 'id': 'edamame', 'src': '/static/foodstim60/edamame.jpg', 'key': 'u', 'origWidth': 409, 'origHeight': 410, 'width': 409, 'height': 410, 'widthPercent': 0.45, 'rescaleHeight': False, 'trialN': 97, 'loaded': True, 'loadedTime': 3604.100000143051, 'positionName': 'LEFT', 'positionCoords': [512.6, 335], 'bid': 4.1}, {'imgObject': {}, 'id': 'roastedpotatoes', 'src': '/static/foodstim60/roastedpotatoes.jpg', 'key': 'i', 'origWidth': 409, 'origHeight': 410, 'width': 409, 'height': 410, 'widthPercent': 0.45, 'rescaleHeight': False, 'trialN': 97, 'loaded': True, 'loadedTime': 3729.2999999523163, 'positionName': 'RIGHT', 'positionCoords': [998.4, 335], 'bid': 3.79}]",198466.10000014305,1669841736379,edamame,roastedpotatoes,4.1,3.79,-0.3099999999999996,edamame,1026.7999999523163,1028,1027.5999999046326,True,u,200006.70000004768,1540.5999999046326,1669841737920,1541,HRV,HRV_0300,2022-11-30 20:57:43
98,"[{'imgObject': {}, 'id': 'chickenfingers', 'src': '/static/foodstim60/chickenfingers.jpg', 'key': 'u', 'origWidth': 410, 'origHeight': 410, 'width': 410, 'height': 410, 'widthPercent': 0.45, 'rescaleHeight': False, 'trialN': 98, 'loaded': True, 'loadedTime': 3592.4000000953674, 'positionName': 'LEFT', 'positionCoords': [511.6, 335], 'bid': 8.85}, {'imgObject': {}, 'id': 'ice cream sundae 002', 'src': '/static/foodstim60/ice cream sundae 002.jpg', 'key': 'i', 'origWidth': 409, 'origHeight': 409, 'width': 409, 'height': 409, 'widthPercent': 0.45, 'rescaleHeight': False, 'trialN': 98, 'loaded': True, 'loadedTime': 3662.7000000476837, 'positionName': 'RIGHT', 'positionCoords': [998.4, 335.5], 'bid': 6.0200000000000005}]",200007.0,1669841737920,chickenfingers,ice cream sundae 002,8.85,6.0200000000000005,-2.829999999999999,chickenfingers,797.7000000476837,798,798.2000000476837,True,u,201307.90000009537,1300.9000000953674,1669841739221,1301,HRV,HRV_0300,2022-11-30 20:57:43
99,"[{'imgObject': {}, 'id': 'mac & cheese', 'src': '/static/foodstim60/mac & cheese.jpg', 'key': 'u', 'origWidth': 410, 'origHeight': 410, 'width': 410, 'height': 410, 'widthPercent': 0.45, 'rescaleHeight': False, 'trialN': 99, 'loaded': True, 'loadedTime': 3499.7999999523163, 'positionName': 'LEFT', 'positionCoords': [511.6, 335], 'bid': 9.85}, {'imgObject': {}, 'id': 'steak', 'src': '/static/foodstim60/steak.jpg', 'key': 'i', 'origWidth': 410, 'origHeight': 410, 'width': 410, 'height': 410, 'widthPercent': 0.45, 'rescaleHeight': False, 'trialN': 99, 'loaded': True, 'loadedTime': 3257.600000143051, 'positionName': 'RIGHT', 'positionCoords': [998.4, 335], 'bid': 9.92}]",201308.29999995232,1669841739221,mac & cheese,steak,9.85,9.92,0.07000000000000028,steak,760.5,749,761.4000000953674,True,i,202591.0,1282.7000000476837,1669841740492,1271,HRV,HRV_0300,2022-11-30 20:57:43
100,"[{'imgObject': {}, 'id': 'avocado', 'src': '/static/foodstim60/avocado.jpg', 'key': 'u', 'origWidth': 409, 'origHeight': 409, 'width': 409, 'height': 409, 'widthPercent': 0.45, 'rescaleHeight': False, 'trialN': 100, 'loaded': True, 'loadedTime': 3737.7000000476837, 'positionName': 'LEFT', 'positionCoords': [512.6, 335.5], 'bid': 0.12}, {'imgObject': {}, 'id': 'seaweed', 'src': '/static/foodstim60/seaweed.jpg', 'key': 'i', 'origWidth': 410, 'origHeight': 410, 'width': 410, 'height': 410, 'widthPercent': 0.45, 'rescaleHeight': False, 'trialN': 100, 'loaded': True, 'loadedTime': 3562.4000000953674, 'positionName': 'RIGHT', 'positionCoords': [998.4, 335], 'bid': 0.16}]",202591.29999995232,1669841740492,avocado,seaweed,0.12,0.16,0.04000000000000001,seaweed,1653.6000001430511,1654,1654.1000001430511,True,i,204763.70000004768,2172.4000000953674,1669841742664,2172,HRV,HRV_0300,2022-11-30 20:57:43
101,"[{'imgObject': {}, 'id': 'bagel plain', 'src': '/static/foodstim60/bagel plain.jpg', 'key': 'u', 'origWidth': 410, 'origHeight': 410, 'width': 410, 'height': 410, 'widthPercent': 0.45, 'rescaleHeight': False, 'trialN': 101, 'loaded': True, 'loadedTime': 3345.2000000476837, 'positionName': 'LEFT', 'positionCoords': [511.6, 335], 'bid': 7.890000000000001}, {'imgObject': {}, 'id': 'banana', 'src': '/static/foodstim60/banana.jpg', 'key': 'i', 'origWidth': 410, 'origHeight': 410, 'width': 410, 'height': 410, 'widthPercent': 0.45, 'rescaleHeight': False, 'trialN': 101, 'loaded': True, 'loadedTime': 3264.7999999523163, 'positionName': 'RIGHT', 'positionCoords': [998.4, 335], 'bid': 6.2}]",204764.0,1669841742665,bagel plain,banana,7.890000000000001,6.2,-1.6900000000000004,banana,1080.9000000953674,1082,1081.9000000953674,True,i,206353.20000004768,1589.2000000476837,1669841744254,1589,HRV,HRV_0300,2022-11-30 20:57:43
102,"[{'imgObject': {}, 'id': 'fruitsalad', 'src': '/static/foodstim60/fruitsalad.jpg', 'key': 'u', 'origWidth': 410, 'origHeight': 410, 'width': 410, 'height': 410, 'widthPercent': 0.45, 'rescaleHeight': False, 'trialN': 102, 'loaded': True, 'loadedTime': 3484.9000000953674, 'positionName': 'LEFT', 'positionCoords': [511.6, 335], 'bid': 0.17}, {'imgObject': {}, 'id': 'strawberries', 'src': '/static/foodstim60/strawberries.jpg', 'key': 'i', 'origWidth': 410, 'origHeight': 410, 'width': 410, 'height': 410, 'widthPercent': 0.45, 'rescaleHeight': False, 'trialN': 102, 'loaded': True, 'loadedTime': 3733, 'positionName': 'RIGHT', 'positionCoords': [998.4, 335], 'bid': 1.3}]",206353.60000014305,1669841744254,fruitsalad,strawberries,0.17,1.3,1.1300000000000001,fruitsalad,1067.8999998569489,1069,1068.6999998092651,True,u,207941.0,1587.3999998569489,1669841745842,1588,HRV,HRV_0300,2022-11-30 20:57:43
103,"[{'imgObject': {}, 'id': 'rigatoni and sauce', 'src': '/static/foodstim60/rigatoni and sauce.jpg', 'key': 'u', 'origWidth': 410, 'origHeight': 411, 'width': 410, 'height': 411, 'widthPercent': 0.45, 'rescaleHeight': False, 'trialN': 103, 'loaded': True, 'loadedTime': 3705.9000000953674, 'positionName': 'LEFT', 'positionCoords': [511.6, 334.5], 'bid': 8.36}, {'imgObject': {}, 'id': 'banana', 'src': '/static/foodstim60/banana.jpg', 'key': 'i', 'origWidth': 410, 'origHeight': 410, 'width': 410, 'height': 410, 'widthPercent': 0.45, 'rescaleHeight': False, 'trialN': 103, 'loaded': True, 'loadedTime': 3262.7000000476837, 'positionName': 'RIGHT', 'positionCoords': [998.4, 335], 'bid': 6.2}]",207941.20000004768,1669841745842,rigatoni and sauce,banana,8.36,6.2,-2.1599999999999993,banana,1223.7000000476837,1224,1224.2999999523163,True,i,209674.20000004768,1733.0,1669841747575,1733,HRV,HRV_0300,2022-11-30 20:57:43
104,"[{'imgObject': {}, 'id': 'popsicles', 'src': '/static/foodstim60/popsicles.jpg', 'key': 'u', 'origWidth': 410, 'origHeight': 410, 'width': 410, 'height': 410, 'widthPercent': 0.45, 'rescaleHeight': False, 'trialN': 104, 'loaded': True, 'loadedTime': 3660.600000143051, 'positionName': 'LEFT', 'positionCoords': [511.6, 335], 'bid': 5.2700000000000005}, {'imgObject': {}, 'id': 'Tribe humus pita', 'src': '/static/foodstim60/Tribe humus pita.jpg', 'key': 'i', 'origWidth': 411, 'origHeight': 411, 'width': 411, 'height': 411, 'widthPercent': 0.45, 'rescaleHeight': False, 'trialN': 104, 'loaded': True, 'loadedTime': 3402.100000143051, 'positionName': 'RIGHT', 'positionCoords': [998.4, 334.5], 'bid': 4.5600000000000005}]",209674.40000009537,1669841747575,popsicles,Tribe humus pita,5.2700000000000005,4.5600000000000005,-0.71,popsicles,938.5,940,939.3999998569489,True,u,211130.79999995232,1456.3999998569489,1669841749031,1456,HRV,HRV_0300,2022-11-30 20:57:43
105,"[{'imgObject': {}, 'id': 'Grapes', 'src': '/static/foodstim60/Grapes.jpg', 'key': 'u', 'origWidth': 411, 'origHeight': 411, 'width': 411, 'height': 411, 'widthPercent': 0.45, 'rescaleHeight': False, 'trialN': 105, 'loaded': True, 'loadedTime': 3498.600000143051, 'positionName': 'LEFT', 'positionCoords': [510.6, 334.5], 'bid': 2.13}, {'imgObject': {}, 'id': 'roastedpotatoes', 'src': '/static/foodstim60/roastedpotatoes.jpg', 'key': 'i', 'origWidth': 409, 'origHeight': 410, 'width': 409, 'height': 410, 'widthPercent': 0.45, 'rescaleHeight': False, 'trialN': 105, 'loaded': True, 'loadedTime': 3730.7000000476837, 'positionName': 'RIGHT', 'positionCoords': [998.4, 335], 'bid': 3.79}]",211131.0,1669841749032,Grapes,roastedpotatoes,2.13,3.79,1.6600000000000001,roastedpotatoes,1105.9000000953674,1106,1106.5,True,i,212747.79999995232,1616.7999999523163,1669841750649,1617,HRV,HRV_0300,2022-11-30 20:57:43
106,"[{'imgObject': {}, 'id': 'bagel plain', 'src': '/static/foodstim60/bagel plain.jpg', 'key': 'u', 'origWidth': 410, 'origHeight': 410, 'width': 410, 'height': 410, 'widthPercent': 0.45, 'rescaleHeight': False, 'trialN': 106, 'loaded': True, 'loadedTime': 3346.600000143051, 'positionName': 'LEFT', 'positionCoords': [511.6, 335], 'bid': 7.890000000000001}, {'imgObject': {}, 'id': 'blackbeanswithrice', 'src': '/static/foodstim60/blackbeanswithrice.jpg', 'key': 'i', 'origWidth': 410, 'origHeight': 410, 'width': 410, 'height': 410, 'widthPercent': 0.45, 'rescaleHeight': False, 'trialN': 106, 'loaded': True, 'loadedTime': 3569.2000000476837, 'positionName': 'RIGHT', 'positionCoords': [998.4, 335], 'bid': 6.67}]",212748.10000014305,1669841750649,bagel plain,blackbeanswithrice,7.890000000000001,6.67,-1.2200000000000006,blackbeanswithrice,864.7999999523163,865,865.5999999046326,True,i,214125.0,1376.8999998569489,1669841752026,1377,HRV,HRV_0300,2022-11-30 20:57:43
107,"[{'imgObject': {}, 'id': 'ice cream sundae 002', 'src': '/static/foodstim60/ice cream sundae 002.jpg', 'key': 'u', 'origWidth': 409, 'origHeight': 409, 'width': 409, 'height': 409, 'widthPercent': 0.45, 'rescaleHeight': False, 'trialN': 107, 'loaded': True, 'loadedTime': 3660.9000000953674, 'positionName': 'LEFT', 'positionCoords': [512.6, 335.5], 'bid': 6.0200000000000005}, {'imgObject': {}, 'id': 'lox', 'src': '/static/foodstim60/lox.jpg', 'key': 'i', 'origWidth': 410, 'origHeight': 411, 'width': 410, 'height': 411, 'widthPercent': 0.45, 'rescaleHeight': False, 'trialN': 107, 'loaded': True, 'loadedTime': 3735.100000143051, 'positionName': 'RIGHT', 'positionCoords': [998.4, 334.5], 'bid': 1.28}]",214125.29999995232,1669841752026,ice cream sundae 002,lox,6.0200000000000005,1.28,-4.74,ice cream sundae 002,1119.3000001907349,1120,1119.6000001430511,True,u,215757.5,1632.2000000476837,1669841753658,1632,HRV,HRV_0300,2022-11-30 20:57:43
