success,trial_type,trial_index,time_elapsed,internal_node_id,Block,TrialNumber,TrialTime,trialTimeDiff,FPS_avg,FPS_med,FPS_mode,TrialDur,winResizeTime,rt,block,button_pressed,MotCoh,MotDir,ColCoh,Color,ChoiceKey,Choice,Accuracy,RT,nFrames,FPS,PPD,missTrial,missTrialMsg,onsetDelay,fullScreenExitTime,canvCenter,TrialType,Score,BlockTrial,stimulus,button_labels,exp,subjectId,date
True,fullscreen,0,2939,0.0-0.0,0.0,1.0,,,,,,,,,,,,,,,,,,,,,,,,,,,,,,,,HRV,HRV_0300,2022-11-30 21:24:46
,wl-check-fps,1,7941,0.0-1.0,0.0,2.0,"[3335.1, 3347.3, 3363.5, 3389.2, 3394.6, 3411.5, 3429.5, 3444.6, 3461.4, 3478.3, 3494.9, 3511.3, 3528.8, 3544.7, 3561.3, 3577.7, 3595.6, 3611.6, 3628.1, 3646.2, 3661.4, 3678.9, 3696, 3712, 3729.1, 3746, 3761.7, 3780.1, 3796.2, 3812.7, 3828.2, 3845.6, 3862.8, 3877.8, 3894.9, 3912, 3928.1, 3945.1, 3961.2, 3978.2, 3995.4, 4011.4, 4028.6, 4045.5, 4061.7, 4078.6, 4094.7, 4111.8, 4129, 4145.1, 4161.3, 4178.5, 4195.3, 4211.9, 4227.9, 4245.5, 4262, 4277.8, 4294.9, 4312.2, 4328.6, 4345.6, 4361.6, 4378.8, 4395.1, 4412.6, 4429, 4445.4, 4461.6, 4478.9, 4495, 4511.3, 4529.2, 4545.9, 4563.1, 4578.1, 4595.9, 4611.1, 4628.3, 4645, 4662.3, 4679.2, 4696, 4712.2, 4728.7, 4745, 4762.4, 4778.9, 4794.9, 4812, 4828.2, 4846.2, 4862.1, 4878.8, 4894.7, 4912, 4928.3, 4945.3, 4961.4, 4978.3, 4994.9, 5011.8, 5028.6, 5044.8, 5062.6, 5077.8, 5094.9, 5112, 5128, 5145, 5161.1, 5178.2, 5195.3, 5211.5, 5229, 5245, 5262.2, 5278.1, 5295.2, 5311.3, 5328.3, 5345.7, 5361.6, 5378.7, 5394.5, 5411.5, 5427.9, 5444.8, 5461.1, 5478.3, 5494.6, 5512.6, 5528.5, 5544.9, 5562.2, 5579.1, 5596.2, 5611.9, 5628.1, 5645.7, 5662.1, 5678.2, 5695.3, 5711.5, 5729.2, 5745.3, 5761.3, 5778.5, 5795.3, 5811.4, 5828.5, 5844.5, 5861.7, 5879.4, 5894.5, 5911.4, 5927.7, 5945.1, 5962.9, 5978.7, 5994.6, 6012.5, 6028.6, 6045.1, 6063.1, 6078.1, 6095.4, 6111.4, 6128.1, 6145.1, 6161.2, 6178.3, 6195.4, 6211.5, 6228.6, 6245.2, 6261.6, 6278.6, 6294.9, 6311.9, 6328, 6345.3, 6361.5, 6378.6, 6394.7, 6411.8, 6428, 6444.9, 6462, 6478, 6495.1, 6511.7, 6529, 6545, 6561.5, 6578.7, 6595.4, 6611.4, 6628.4, 6644.5, 6662.2, 6678.2, 6695.6, 6711.6, 6728.7, 6744.7, 6762.6, 6778.8, 6794.5, 6811.6, 6827.8, 6844.8, 6861.9, 6878.3, 6895.3, 6911.5, 6929.3, 6944.4, 6961.3, 6978.1, 6995.3, 7011.6, 7029, 7045.9, 7062.2, 7078, 7095.1, 7111.4, 7128.3, 7145.5, 7161.7, 7178.6, 7195, 7211.4, 7229.2, 7246.1, 7261.4, 7278.6, 7295.6, 7311.7, 7328.7, 7345.4, 7361.4, 7378.9, 7394.8, 7412.4, 7429, 7445.2, 7463.2, 7478.2, 7495.6, 7511.5, 7529.2, 7545.6, 7561.5, 7579.3, 7595.8, 7612, 7628, 7645.7, 7662.1, 7678.1, 7696.3, 7712, 7728.3, 7745.3, 7761.4, 7778.5, 7794.5, 7811.5, 7828.5, 7844.8, 7862, 7878.7, 7894.7, 7911.9, 7928.8, 7944.9, 7962.2, 7978.7, 7994.7, 8012.6, 8028.4, 8044.7, 8062.3, 8078.8, 8094.7, 8111.8, 8127.9, 8145.2, 8161.8, 8178.9, 8195, 8213.1, 8228.2, 8245.9, 8262, 8278.3, 8295.3, 8311.4]","[2.8, 12.2, 16.2, 25.7, 5.4, 16.9, 18, 15.1, 16.8, 16.9, 16.6, 16.4, 17.5, 15.9, 16.6, 16.4, 17.9, 16, 16.5, 18.1, 15.2, 17.5, 17.1, 16, 17.1, 16.9, 15.7, 18.4, 16.1, 16.5, 15.5, 17.4, 17.2, 15, 17.1, 17.1, 16.1, 17, 16.1, 17, 17.2, 16, 17.2, 16.9, 16.2, 16.9, 16.1, 17.1, 17.2, 16.1, 16.2, 17.2, 16.8, 16.6, 16, 17.6, 16.5, 15.8, 17.1, 17.3, 16.4, 17, 16, 17.2, 16.3, 17.5, 16.4, 16.4, 16.2, 17.3, 16.1, 16.3, 17.9, 16.7, 17.2, 15, 17.8, 15.2, 17.2, 16.7, 17.3, 16.9, 16.8, 16.2, 16.5, 16.3, 17.4, 16.5, 16, 17.1, 16.2, 18, 15.9, 16.7, 15.9, 17.3, 16.3, 17, 16.1, 16.9, 16.6, 16.9, 16.8, 16.2, 17.8, 15.2, 17.1, 17.1, 16, 17, 16.1, 17.1, 17.1, 16.2, 17.5, 16, 17.2, 15.9, 17.1, 16.1, 17, 17.4, 15.9, 17.1, 15.8, 17, 16.4, 16.9, 16.3, 17.2, 16.3, 18, 15.9, 16.4, 17.3, 16.9, 17.1, 15.7, 16.2, 17.6, 16.4, 16.1, 17.1, 16.2, 17.7, 16.1, 16, 17.2, 16.8, 16.1, 17.1, 16, 17.2, 17.7, 15.1, 16.9, 16.3, 17.4, 17.8, 15.8, 15.9, 17.9, 16.1, 16.5, 18, 15, 17.3, 16, 16.7, 17, 16.1, 17.1, 17.1, 16.1, 17.1, 16.6, 16.4, 17, 16.3, 17, 16.1, 17.3, 16.2, 17.1, 16.1, 17.1, 16.2, 16.9, 17.1, 16, 17.1, 16.6, 17.3, 16, 16.5, 17.2, 16.7, 16, 17, 16.1, 17.7, 16, 17.4, 16, 17.1, 16, 17.9, 16.2, 15.7, 17.1, 16.2, 17, 17.1, 16.4, 17, 16.2, 17.8, 15.1, 16.9, 16.8, 17.2, 16.3, 17.4, 16.9, 16.3, 15.8, 17.1, 16.3, 16.9, 17.2, 16.2, 16.9, 16.4, 16.4, 17.8, 16.9, 15.3, 17.2, 17, 16.1, 17, 16.7, 16, 17.5, 15.9, 17.6, 16.6, 16.2, 18, 15, 17.4, 15.9, 17.7, 16.4, 15.9, 17.8, 16.5, 16.2, 16, 17.7, 16.4, 16, 18.2, 15.7, 16.3, 17, 16.1, 17.1, 16, 17, 17, 16.3, 17.2, 16.7, 16, 17.2, 16.9, 16.1, 17.3, 16.5, 16, 17.9, 15.8, 16.3, 17.6, 16.5, 15.9, 17.1, 16.1, 17.3, 16.6, 17.1, 16.1, 18.1, 15.1, 17.7, 16.1, 16.3, 17, 16.1]",60.0,60.0,58.0,4996.1,[],,,,,,,,,,,,,,,,,,,,,,,,,HRV,HRV_0300,2022-11-30 21:24:46
,wl-html-keyboard-response,2,24932,0.0-2.0-0.0,0.0,3.0,,,,,,,,14979.299999952316,0.0,0,,,,,,,,,,,,,,,,,,,,,,HRV,HRV_0300,2022-11-30 21:24:46
,wl-rdm,3,33824,0.0-3.0-0.0,0.0,4.0,,,,,,,[],,,,0.0,0.0,87.9,0.0,u,0.0,True,3285.0,197.0,58.0,40.0,False,,3000.0,[],"[960, 540]",ColorTask_Demo,,,,,HRV,HRV_0300,2022-11-30 21:24:46
,wl-rdm,4,39790,0.0-3.0-1.0,0.0,5.0,,,,,,,[],,,,0.0,0.0,87.9,1.0,i,1.0,True,1873.4000000953674,113.0,58.0,40.0,False,,2000.0,[],"[960, 540]",ColorTask_Demo,,,,,HRV,HRV_0300,2022-11-30 21:24:46
,wl-html-keyboard-response,5,46268,0.0-3.0-2.0,0.0,6.0,,,,,,,,4468.700000047684,0.0,1,,,,,,,,,,,,,,,,,,,,,,HRV,HRV_0300,2022-11-30 21:24:46
,wl-html-keyboard-response,6,59627,0.0-4.0-0.0,0.0,7.0,,,,,,,,11350.5,0.0,0,,,,,,,,,,,,,,,,,,,,,,HRV,HRV_0300,2022-11-30 21:24:46
,wl-html-keyboard-response,7,71709,0.0-5.0-0.0,0.0,8.0,,,,,,,,10072.900000095367,0.0,0,,,,,,,,,,,,,,,,,,,,,,HRV,HRV_0300,2022-11-30 21:24:46
,wl-rdm,8,74807,0.0-6.0-0.0,0.0,9.0,,,,,,,[],,,,,,53.2,1.0,i,1.0,True,1798.7000000476837,108.0,58.0,40.0,False,,217.62985843808423,[],"[960, 540]",ColorTask,1.0,1.0,,,HRV,HRV_0300,2022-11-30 21:24:46
,wl-rdm,9,77490,0.0-6.1-0.1,0.0,10.0,,,,,,,[],,,,,,73.6,1.0,i,1.0,True,1375.9999997615814,83.0,58.0,40.0,False,,250.16641261332717,[],"[960, 540]",ColorTask,2.0,2.0,,,HRV,HRV_0300,2022-11-30 21:24:46
,wl-rdm,10,80123,0.0-6.2-0.2,0.0,11.0,,,,,,,[],,,,,,50.0,1.0,i,1.0,True,1218.5999999046326,74.0,58.0,40.0,False,,322.6183865810003,[],"[960, 540]",ColorTask,3.0,3.0,,,HRV,HRV_0300,2022-11-30 21:24:46
,wl-rdm,11,82723,0.0-6.3-0.3,0.0,12.0,,,,,,,[],,,,,,56.4,1.0,i,1.0,True,1260.3000001907349,76.0,58.0,40.0,False,,255.4238797189441,[],"[960, 540]",ColorTask,4.0,4.0,,,HRV,HRV_0300,2022-11-30 21:24:46
,wl-rdm,12,85339,0.0-6.4-0.4,0.0,13.0,,,,,,,[],,,,,,50.0,1.0,i,1.0,True,1234.9000000953674,75.0,58.0,40.0,False,,295.12587511355906,[],"[960, 540]",ColorTask,5.0,5.0,,,HRV,HRV_0300,2022-11-30 21:24:46
,wl-rdm,13,88074,0.0-6.5-0.5,0.0,14.0,,,,,,,[],,,,,,56.4,1.0,i,1.0,True,1360.9999997615814,82.0,58.0,40.0,False,,305.95636446198137,[],"[960, 540]",ColorTask,6.0,6.0,,,HRV,HRV_0300,2022-11-30 21:24:46
,wl-rdm,14,90540,0.0-6.6-0.6,0.0,15.0,,,,,,,[],,,,,,87.9,0.0,u,0.0,True,1125.0,68.0,58.0,40.0,False,,253.69414333605272,[],"[960, 540]",ColorTask,7.0,7.0,,,HRV,HRV_0300,2022-11-30 21:24:46
,wl-rdm,15,92922,0.0-6.7-0.7,0.0,16.0,,,,,,,[],,,,,,56.4,1.0,i,1.0,True,1084.6000001430511,66.0,58.0,40.0,False,,224.75627990408952,[],"[960, 540]",ColorTask,8.0,8.0,,,HRV,HRV_0300,2022-11-30 21:24:46
,wl-rdm,16,95189,0.0-6.8-0.8,0.0,17.0,,,,,,,[],,,,,,87.9,0.0,u,0.0,True,963.5,58.0,58.0,40.0,False,,245.30220691606272,[],"[960, 540]",ColorTask,9.0,9.0,,,HRV,HRV_0300,2022-11-30 21:24:46
,wl-rdm,17,97773,0.0-6.9-0.9,0.0,18.0,,,,,,,[],,,,,,56.4,1.0,i,1.0,True,1131.2000000476837,68.0,58.0,40.0,False,,394.33178750894274,[],"[960, 540]",ColorTask,10.0,10.0,,,HRV,HRV_0300,2022-11-30 21:24:46
,wl-rdm,18,100173,0.0-6.10-0.10,0.0,19.0,,,,,,,[],,,,,,62.5,0.0,i,1.0,False,982.7999999523163,59.0,58.0,40.0,False,,346.0844600137838,[],"[960, 540]",ColorTask,9.0,11.0,,,HRV,HRV_0300,2022-11-30 21:24:46
,wl-rdm,19,102523,0.0-6.11-0.11,0.0,20.0,,,,,,,[],,,,,,87.9,1.0,i,1.0,True,868.4000000953674,52.0,58.0,40.0,False,,392.6407032387167,[],"[960, 540]",ColorTask,10.0,12.0,,,HRV,HRV_0300,2022-11-30 21:24:46
,wl-rdm,20,104690,0.0-6.12-0.12,0.0,21.0,,,,,,,[],,,,,,62.5,0.0,i,1.0,False,894.0,54.0,58.0,40.0,False,,213.2116893877617,[],"[960, 540]",ColorTask,9.0,13.0,,,HRV,HRV_0300,2022-11-30 21:24:46
,wl-rdm,21,107373,0.0-6.13-0.13,0.0,22.0,,,,,,,[],,,,,,50.0,1.0,i,1.0,True,1290.0,78.0,58.0,40.0,False,,332.8738162160307,[],"[960, 540]",ColorTask,10.0,14.0,,,HRV,HRV_0300,2022-11-30 21:24:46
,wl-rdm,22,109890,0.0-6.14-0.14,0.0,23.0,,,,,,,[],,,,,,50.0,0.0,u,0.0,True,1086.9000000953674,66.0,58.0,40.0,False,,360.65098278638493,[],"[960, 540]",ColorTask,11.0,15.0,,,HRV,HRV_0300,2022-11-30 21:24:46
,wl-rdm,23,112173,0.0-6.15-0.15,0.0,24.0,,,,,,,[],,,,,,53.2,1.0,i,1.0,True,998.0,60.0,58.0,40.0,False,,217.32291374265617,[],"[960, 540]",ColorTask,12.0,16.0,,,HRV,HRV_0300,2022-11-30 21:24:46
,wl-rdm,24,114423,0.0-6.16-0.16,0.0,25.0,,,,,,,[],,,,,,87.9,1.0,i,1.0,True,945.5,57.0,58.0,40.0,False,,236.59162764061114,[],"[960, 540]",ColorTask,13.0,17.0,,,HRV,HRV_0300,2022-11-30 21:24:46
,wl-rdm,25,116673,0.0-6.17-0.17,0.0,26.0,,,,,,,[],,,,,,50.0,0.0,u,0.0,True,903.1999998092651,55.0,58.0,40.0,False,,257.6677289651624,[],"[960, 540]",ColorTask,14.0,18.0,,,HRV,HRV_0300,2022-11-30 21:24:46
,wl-rdm,26,119023,0.0-6.18-0.18,0.0,27.0,,,,,,,[],,,,,,73.6,1.0,i,1.0,True,929.9000000953674,56.0,58.0,40.0,False,,338.34031266974864,[],"[960, 540]",ColorTask,15.0,19.0,,,HRV,HRV_0300,2022-11-30 21:24:46
,wl-rdm,27,121256,0.0-6.19-0.19,0.0,28.0,,,,,,,[],,,,,,73.6,1.0,i,1.0,True,943.5,57.0,58.0,40.0,False,,218.91276309346154,[],"[960, 540]",ColorTask,16.0,20.0,,,HRV,HRV_0300,2022-11-30 21:24:46
,wl-rdm,28,123607,0.0-6.20-0.20,0.0,29.0,,,,,,,[],,,,,,73.6,1.0,i,1.0,True,888.8999998569489,54.0,58.0,40.0,False,,376.146870715222,[],"[960, 540]",ColorTask,17.0,21.0,,,HRV,HRV_0300,2022-11-30 21:24:46
,wl-rdm,29,125957,0.0-6.21-0.21,0.0,30.0,,,,,,,[],,,,,,73.6,0.0,u,0.0,True,906.2000000476837,55.0,58.0,40.0,False,,378.9746929265818,[],"[960, 540]",ColorTask,18.0,22.0,,,HRV,HRV_0300,2022-11-30 21:24:46
,wl-rdm,30,128590,0.0-6.22-0.22,0.0,31.0,,,,,,,[],,,,,,53.2,0.0,u,0.0,True,1181.3999998569489,71.0,58.0,40.0,False,,382.3747043519916,[],"[960, 540]",ColorTask,19.0,23.0,,,HRV,HRV_0300,2022-11-30 21:24:46
,wl-rdm,31,130956,0.0-6.23-0.23,0.0,32.0,,,,,,,[],,,,,,62.5,1.0,i,1.0,True,1056.5999999046326,64.0,58.0,40.0,False,,237.49642908112477,[],"[960, 540]",ColorTask,20.0,24.0,,,HRV,HRV_0300,2022-11-30 21:24:46
,wl-rdm,32,133223,0.0-6.24-0.24,0.0,33.0,,,,,,,[],,,,,,87.9,1.0,i,1.0,True,963.1000001430511,58.0,58.0,40.0,False,,222.69499655301135,[],"[960, 540]",ColorTask,21.0,25.0,,,HRV,HRV_0300,2022-11-30 21:24:46
,wl-rdm,33,135522,0.0-6.25-0.25,0.0,34.0,,,,,,,[],,,,,,87.9,0.0,u,0.0,True,858.8999998569489,52.0,58.0,40.0,False,,324.1053494794387,[],"[960, 540]",ColorTask,22.0,26.0,,,HRV,HRV_0300,2022-11-30 21:24:46
,wl-rdm,34,137706,0.0-6.26-0.26,0.0,35.0,,,,,,,[],,,,,,87.9,0.0,u,0.0,True,901.4000000953674,55.0,58.0,40.0,False,,209.2626931302777,[],"[960, 540]",ColorTask,23.0,27.0,,,HRV,HRV_0300,2022-11-30 21:24:46
,wl-rdm,35,140356,0.0-6.27-0.27,0.0,36.0,,,,,,,[],,,,,,56.4,0.0,u,0.0,True,1340.3000001907349,81.0,58.0,40.0,False,,243.9541511870433,[],"[960, 540]",ColorTask,24.0,28.0,,,HRV,HRV_0300,2022-11-30 21:24:46
,wl-rdm,36,142755,0.0-6.28-0.28,0.0,37.0,,,,,,,[],,,,,,56.4,0.0,u,0.0,True,1106.7999999523163,67.0,58.0,40.0,False,,211.13605606755502,[],"[960, 540]",ColorTask,25.0,29.0,,,HRV,HRV_0300,2022-11-30 21:24:46
,wl-rdm,37,145172,0.0-6.29-0.29,0.0,38.0,,,,,,,[],,,,,,50.0,0.0,u,0.0,True,1132.0,68.0,58.0,40.0,False,,201.54502531564336,[],"[960, 540]",ColorTask,26.0,30.0,,,HRV,HRV_0300,2022-11-30 21:24:46
,wl-rdm,38,147873,0.0-6.30-0.30,0.0,39.0,,,,,,,[],,,,,,53.2,0.0,u,0.0,True,1277.2000000476837,77.0,58.0,40.0,False,,344.8100283516346,[],"[960, 540]",ColorTask,27.0,31.0,,,HRV,HRV_0300,2022-11-30 21:24:46
,wl-rdm,39,150372,0.0-6.31-0.31,0.0,40.0,,,,,,,[],,,,,,73.6,1.0,i,1.0,True,1023.8999998569489,62.0,58.0,40.0,False,,394.1265784085747,[],"[960, 540]",ColorTask,28.0,32.0,,,HRV,HRV_0300,2022-11-30 21:24:46
,wl-rdm,40,152690,0.0-6.32-0.32,0.0,41.0,,,,,,,[],,,,,,62.5,1.0,i,1.0,True,1011.6000001430511,61.0,58.0,40.0,False,,225.66753023239494,[],"[960, 540]",ColorTask,29.0,33.0,,,HRV,HRV_0300,2022-11-30 21:24:46
,wl-rdm,41,155139,0.0-6.33-0.33,0.0,42.0,,,,,,,[],,,,,,87.9,0.0,u,0.0,True,1107.3999998569489,67.0,58.0,40.0,False,,250.49387399758857,[],"[960, 540]",ColorTask,30.0,34.0,,,HRV,HRV_0300,2022-11-30 21:24:46
,wl-rdm,42,157473,0.0-6.34-0.34,0.0,43.0,,,,,,,[],,,,,,87.9,0.0,u,0.0,True,976.0,59.0,58.0,40.0,False,,293.2673831642608,[],"[960, 540]",ColorTask,31.0,35.0,,,HRV,HRV_0300,2022-11-30 21:24:46
,wl-rdm,43,159723,0.0-6.35-0.35,0.0,44.0,,,,,,,[],,,,,,62.5,0.0,u,0.0,True,951.3999998569489,58.0,58.0,40.0,False,,224.57420950063585,[],"[960, 540]",ColorTask,32.0,36.0,,,HRV,HRV_0300,2022-11-30 21:24:46
,wl-rdm,44,162023,0.0-6.36-0.36,0.0,45.0,,,,,,,[],,,,,,53.2,0.0,i,1.0,False,1004.8000001907349,61.0,58.0,40.0,False,,231.47875053856626,[],"[960, 540]",ColorTask,31.0,37.0,,,HRV,HRV_0300,2022-11-30 21:24:46
,wl-rdm,45,164289,0.0-6.37-0.37,0.0,46.0,,,,,,,[],,,,,,87.9,1.0,i,1.0,True,922.8999998569489,56.0,58.0,40.0,False,,252.71705497715607,[],"[960, 540]",ColorTask,32.0,38.0,,,HRV,HRV_0300,2022-11-30 21:24:46
,wl-rdm,46,166622,0.0-6.38-0.38,0.0,47.0,,,,,,,[],,,,,,62.5,1.0,u,0.0,False,1037.0,63.0,58.0,40.0,False,,228.7999380495513,[],"[960, 540]",ColorTask,31.0,39.0,,,HRV,HRV_0300,2022-11-30 21:24:46
,wl-rdm,47,169122,0.0-6.39-0.39,0.0,48.0,,,,,,,[],,,,,,73.6,1.0,i,1.0,True,1135.3000001907349,69.0,58.0,40.0,False,,274.0611573981113,[],"[960, 540]",ColorTask,32.0,40.0,,,HRV,HRV_0300,2022-11-30 21:24:46
,wl-rdm,48,171923,0.0-6.40-0.40,0.0,49.0,,,,,,,[],,,,,,50.0,1.0,u,0.0,False,1369.5999999046326,83.0,58.0,40.0,False,,349.448782443,[],"[960, 540]",ColorTask,31.0,41.0,,,HRV,HRV_0300,2022-11-30 21:24:46
,wl-rdm,49,174539,0.0-6.41-0.41,0.0,50.0,,,,,,,[],,,,,,53.2,1.0,i,1.0,True,1217.0999999046326,73.0,58.0,40.0,False,,328.4458478956161,[],"[960, 540]",ColorTask,32.0,42.0,,,HRV,HRV_0300,2022-11-30 21:24:46
,wl-rdm,50,177138,0.0-6.42-0.42,0.0,51.0,,,,,,,[],,,,,,50.0,0.0,i,1.0,False,1325.5999999046326,80.0,58.0,40.0,False,,209.7192597008232,[],"[960, 540]",ColorTask,31.0,43.0,,,HRV,HRV_0300,2022-11-30 21:24:46
,wl-rdm,51,179789,0.0-6.43-0.43,0.0,52.0,,,,,,,[],,,,,,53.2,1.0,i,1.0,True,1247.5,75.0,58.0,40.0,False,,347.6668005686505,[],"[960, 540]",ColorTask,32.0,44.0,,,HRV,HRV_0300,2022-11-30 21:24:46
,wl-rdm,52,182272,0.0-6.44-0.44,0.0,53.0,,,,,,,[],,,,,,50.0,0.0,i,1.0,False,1143.7000000476837,69.0,58.0,40.0,False,,259.6075937684585,[],"[960, 540]",ColorTask,31.0,45.0,,,HRV,HRV_0300,2022-11-30 21:24:46
,wl-rdm,53,184606,0.0-6.45-0.45,0.0,54.0,,,,,,,[],,,,,,62.5,0.0,u,0.0,True,1020.8999998569489,62.0,58.0,40.0,False,,242.12963976233172,[],"[960, 540]",ColorTask,32.0,46.0,,,HRV,HRV_0300,2022-11-30 21:24:46
,wl-rdm,54,187090,0.0-6.46-0.46,0.0,55.0,,,,,,,[],,,,,,62.5,0.0,u,0.0,True,1136.0999999046326,69.0,58.0,40.0,False,,256.9507909127779,[],"[960, 540]",ColorTask,33.0,47.0,,,HRV,HRV_0300,2022-11-30 21:24:46
,wl-rdm,55,189739,0.0-6.47-0.47,0.0,56.0,,,,,,,[],,,,,,53.2,0.0,u,0.0,True,1189.9000000953674,72.0,58.0,40.0,False,,367.6524879032028,[],"[960, 540]",ColorTask,34.0,48.0,,,HRV,HRV_0300,2022-11-30 21:24:46
,wl-rdm,56,192573,0.0-6.48-0.48,0.0,57.0,,,,,,,[],,,,,,56.4,0.0,u,0.0,True,1373.9999997615814,83.0,58.0,40.0,False,,387.38120751474116,[],"[960, 540]",ColorTask,35.0,49.0,,,HRV,HRV_0300,2022-11-30 21:24:46
,wl-rdm,57,195190,0.0-6.49-0.49,0.0,58.0,,,,,,,[],,,,,,73.6,1.0,i,1.0,True,1148.0,69.0,58.0,40.0,False,,399.87700465754676,[],"[960, 540]",ColorTask,36.0,50.0,,,HRV,HRV_0300,2022-11-30 21:24:46
,wl-rdm,58,197839,0.0-6.50-0.50,0.0,59.0,,,,,,,[],,,,,,56.4,1.0,i,1.0,True,1345.3000001907349,81.0,58.0,40.0,False,,242.80679125625886,[],"[960, 540]",ColorTask,37.0,51.0,,,HRV,HRV_0300,2022-11-30 21:24:46
,wl-rdm,59,200423,0.0-6.51-0.51,0.0,60.0,,,,,,,[],,,,,,73.6,0.0,u,0.0,True,1288.0,78.0,58.0,40.0,False,,204.6234689148385,[],"[960, 540]",ColorTask,38.0,52.0,,,HRV,HRV_0300,2022-11-30 21:24:46
,wl-rdm,60,202989,0.0-6.52-0.52,0.0,61.0,,,,,,,[],,,,,,62.5,0.0,u,0.0,True,1239.5,75.0,58.0,40.0,False,,254.47964210748796,[],"[960, 540]",ColorTask,39.0,53.0,,,HRV,HRV_0300,2022-11-30 21:24:46
,wl-rdm,61,205472,0.0-6.53-0.53,0.0,62.0,,,,,,,[],,,,,,62.5,1.0,i,1.0,True,1186.4000000953674,72.0,58.0,40.0,False,,221.11685846576776,[],"[960, 540]",ColorTask,40.0,54.0,,,HRV,HRV_0300,2022-11-30 21:24:46
,wl-rdm,62,207972,0.0-6.54-0.54,0.0,63.0,,,,,,,[],,,,,,53.2,1.0,i,1.0,True,1230.3000001907349,74.0,58.0,40.0,False,,215.14054243013882,[],"[960, 540]",ColorTask,41.0,55.0,,,HRV,HRV_0300,2022-11-30 21:24:46
,wl-rdm,63,210523,0.0-6.55-0.55,0.0,64.0,,,,,,,[],,,,,,56.4,1.0,i,1.0,True,1258.1999998092651,76.0,58.0,40.0,False,,222.76670688966746,[],"[960, 540]",ColorTask,42.0,56.0,,,HRV,HRV_0300,2022-11-30 21:24:46
,wl-rdm,64,213056,0.0-6.56-0.56,0.0,65.0,,,,,,,[],,,,,,62.5,1.0,i,1.0,True,1261.0,76.0,58.0,40.0,False,,202.89961417474387,[],"[960, 540]",ColorTask,43.0,57.0,,,HRV,HRV_0300,2022-11-30 21:24:46
,wl-rdm,65,215772,0.0-6.57-0.57,0.0,66.0,,,,,,,[],,,,,,56.4,1.0,u,0.0,False,1314.6999998092651,79.0,58.0,40.0,False,,339.2864004270813,[],"[960, 540]",ColorTask,42.0,58.0,,,HRV,HRV_0300,2022-11-30 21:24:46
,wl-rdm,66,218389,0.0-6.58-0.58,0.0,67.0,,,,,,,[],,,,,,53.2,1.0,i,1.0,True,1312.7999997138977,79.0,58.0,40.0,False,,240.29406337623215,[],"[960, 540]",ColorTask,43.0,59.0,,,HRV,HRV_0300,2022-11-30 21:24:46
,wl-rdm,67,220922,0.0-6.59-0.59,0.0,68.0,,,,,,,[],,,,,,56.4,0.0,u,0.0,True,1235.2999999523163,75.0,58.0,40.0,False,,206.38579797321606,[],"[960, 540]",ColorTask,44.0,60.0,,,HRV,HRV_0300,2022-11-30 21:24:46
,wl-rdm,68,223440,0.0-6.60-0.60,0.0,69.0,,,,,,,[],,,,,,50.0,1.0,i,1.0,True,1154.1999998092651,70.0,58.0,40.0,False,,271.7593786168135,[],"[960, 540]",ColorTask,45.0,61.0,,,HRV,HRV_0300,2022-11-30 21:24:46
,wl-rdm,69,225973,0.0-6.61-0.61,0.0,70.0,,,,,,,[],,,,,,50.0,0.0,i,1.0,False,1190.5999999046326,72.0,58.0,40.0,False,,252.04713373071854,[],"[960, 540]",ColorTask,44.0,62.0,,,HRV,HRV_0300,2022-11-30 21:24:46
,wl-rdm,70,228256,0.0-6.62-0.62,0.0,71.0,,,,,,,[],,,,,,87.9,1.0,i,1.0,True,960.2999999523163,58.0,58.0,40.0,False,,242.18437003622068,[],"[960, 540]",ColorTask,45.0,63.0,,,HRV,HRV_0300,2022-11-30 21:24:46
,wl-rdm,71,230806,0.0-6.63-0.63,0.0,72.0,,,,,,,[],,,,,,73.6,1.0,i,1.0,True,1080.5999999046326,65.0,58.0,40.0,False,,396.9005369135272,[],"[960, 540]",ColorTask,46.0,64.0,,,HRV,HRV_0300,2022-11-30 21:24:46
,wl-rdm,72,233373,0.0-6.64-0.64,0.0,73.0,,,,,,,[],,,,,,62.5,1.0,i,1.0,True,1147.1999998092651,69.0,58.0,40.0,False,,364.54246388599336,[],"[960, 540]",ColorTask,47.0,65.0,,,HRV,HRV_0300,2022-11-30 21:24:46
,wl-rdm,73,235990,0.0-6.65-0.65,0.0,74.0,,,,,,,[],,,,,,53.2,1.0,i,1.0,True,1163.5999999046326,70.0,58.0,40.0,False,,368.9060936790526,[],"[960, 540]",ColorTask,48.0,66.0,,,HRV,HRV_0300,2022-11-30 21:24:46
,wl-rdm,74,238673,0.0-6.66-0.66,0.0,75.0,,,,,,,[],,,,,,73.6,0.0,u,0.0,True,1219.5,74.0,58.0,40.0,False,,372.88544551162437,[],"[960, 540]",ColorTask,49.0,67.0,,,HRV,HRV_0300,2022-11-30 21:24:46
,wl-rdm,75,241224,0.0-6.67-0.67,0.0,76.0,,,,,,,[],,,,,,62.5,1.0,i,1.0,True,1204.0999999046326,73.0,58.0,40.0,False,,254.15664537255168,[],"[960, 540]",ColorTask,50.0,68.0,,,HRV,HRV_0300,2022-11-30 21:24:46
,wl-rdm,76,243756,0.0-6.68-0.68,0.0,77.0,,,,,,,[],,,,,,56.4,0.0,u,0.0,True,1174.6999998092651,71.0,58.0,40.0,False,,279.9827453467572,[],"[960, 540]",ColorTask,51.0,69.0,,,HRV,HRV_0300,2022-11-30 21:24:46
,wl-rdm,77,246307,0.0-6.69-0.69,0.0,78.0,,,,,,,[],,,,,,50.0,0.0,i,1.0,False,1176.3000001907349,71.0,58.0,40.0,False,,312.3316065145132,[],"[960, 540]",ColorTask,50.0,70.0,,,HRV,HRV_0300,2022-11-30 21:24:46
,wl-rdm,78,248657,0.0-6.70-0.70,0.0,79.0,,,,,,,[],,,,,,73.6,0.0,u,0.0,True,1020.3000001907349,62.0,58.0,40.0,False,,243.3138000556582,[],"[960, 540]",ColorTask,51.0,71.0,,,HRV,HRV_0300,2022-11-30 21:24:46
,wl-rdm,79,251073,0.0-6.71-0.71,0.0,80.0,,,,,,,[],,,,,,87.9,0.0,u,0.0,True,1086.0999999046326,66.0,58.0,40.0,False,,232.4630367328956,[],"[960, 540]",ColorTask,52.0,72.0,,,HRV,HRV_0300,2022-11-30 21:24:46
,wl-rdm,80,253690,0.0-6.72-0.72,0.0,81.0,,,,,,,[],,,,,,50.0,0.0,i,1.0,False,1185.2000000476837,72.0,58.0,40.0,False,,345.7163506493804,[],"[960, 540]",ColorTask,51.0,73.0,,,HRV,HRV_0300,2022-11-30 21:24:46
,wl-rdm,81,256240,0.0-6.73-0.73,0.0,82.0,,,,,,,[],,,,,,62.5,0.0,u,0.0,True,1237.2999999523163,75.0,58.0,40.0,False,,227.4875187721602,[],"[960, 540]",ColorTask,52.0,74.0,,,HRV,HRV_0300,2022-11-30 21:24:46
,wl-rdm,82,258823,0.0-6.74-0.74,0.0,83.0,,,,,,,[],,,,,,53.2,0.0,u,0.0,True,1162.0000002384186,70.0,58.0,40.0,False,,344.15004815268196,[],"[960, 540]",ColorTask,53.0,75.0,,,HRV,HRV_0300,2022-11-30 21:24:46
,wl-rdm,83,261474,0.0-6.75-0.75,0.0,84.0,,,,,,,[],,,,,,56.4,0.0,u,0.0,True,1186.5,72.0,58.0,40.0,False,,379.1164114806851,[],"[960, 540]",ColorTask,54.0,76.0,,,HRV,HRV_0300,2022-11-30 21:24:46
,wl-rdm,84,264108,0.0-6.76-0.76,0.0,85.0,,,,,,,[],,,,,,50.0,1.0,u,0.0,False,1169.0000002384186,71.0,58.0,40.0,False,,380.85616166139596,[],"[960, 540]",ColorTask,53.0,77.0,,,HRV,HRV_0300,2022-11-30 21:24:46
,wl-rdm,85,266973,0.0-6.77-0.77,0.0,86.0,,,,,,,[],,,,,,50.0,0.0,u,0.0,True,1547.9000000953674,93.0,58.0,40.0,False,,241.09070567309632,[],"[960, 540]",ColorTask,54.0,78.0,,,HRV,HRV_0300,2022-11-30 21:24:46
,wl-rdm,86,269691,0.0-6.78-0.78,0.0,87.0,,,,,,,[],,,,,,53.2,1.0,u,0.0,False,1375.5999999046326,83.0,58.0,40.0,False,,274.64300502820896,[],"[960, 540]",ColorTask,53.0,79.0,,,HRV,HRV_0300,2022-11-30 21:24:46
,wl-rdm,87,272407,0.0-6.79-0.79,0.0,88.0,,,,,,,[],,,,,,53.2,0.0,u,0.0,True,1372.2000000476837,83.0,58.0,40.0,False,,258.9826657653717,[],"[960, 540]",ColorTask,54.0,80.0,,,HRV,HRV_0300,2022-11-30 21:24:46
,wl-rdm,88,274923,0.0-6.80-0.80,0.0,89.0,,,,,,,[],,,,,,87.9,1.0,i,1.0,True,1166.0999999046326,70.0,58.0,40.0,False,,277.8233465379084,[],"[960, 540]",ColorTask,55.0,81.0,,,HRV,HRV_0300,2022-11-30 21:24:46
,wl-rdm,89,277257,0.0-6.81-0.81,0.0,90.0,,,,,,,[],,,,,,53.2,0.0,u,0.0,True,1044.2999999523163,63.0,58.0,40.0,False,,231.0841582993494,[],"[960, 540]",ColorTask,56.0,82.0,,,HRV,HRV_0300,2022-11-30 21:24:46
,wl-rdm,90,279874,0.0-6.82-0.82,0.0,91.0,,,,,,,[],,,,,,56.4,1.0,u,0.0,False,1292.8000001907349,66.0,58.0,40.0,False,,256.40519166435763,[],"[960, 540]",ColorTask,55.0,83.0,,,HRV,HRV_0300,2022-11-30 21:24:46
,wl-rdm,91,282037,0.0-6.83-0.83,0.0,92.0,,,,,,,[],,,,,,87.9,0.0,i,1.0,False,828.1000001430511,50.0,58.0,40.0,False,,271.82434805250233,[],"[960, 540]",ColorTask,54.0,84.0,,,HRV,HRV_0300,2022-11-30 21:24:46
,wl-rdm,92,284373,0.0-6.84-0.84,0.0,93.0,,,,,,,[],,,,,,87.9,1.0,i,1.0,True,931.0,56.0,58.0,40.0,False,,336.31218100063563,[],"[960, 540]",ColorTask,55.0,85.0,,,HRV,HRV_0300,2022-11-30 21:24:46
,wl-rdm,93,286807,0.0-6.85-0.85,0.0,94.0,,,,,,,[],,,,,,73.6,0.0,u,0.0,True,1120.2999999523163,62.0,58.0,40.0,False,,226.0974699137416,[],"[960, 540]",ColorTask,56.0,86.0,,,HRV,HRV_0300,2022-11-30 21:24:46
,wl-rdm,94,289190,0.0-6.86-0.86,0.0,95.0,,,,,,,[],,,,,,73.6,0.0,u,0.0,True,1064.2000000476837,60.0,58.0,40.0,False,,265.2055877075151,[],"[960, 540]",ColorTask,57.0,87.0,,,HRV,HRV_0300,2022-11-30 21:24:46
,wl-rdm,95,292049,0.0-6.87-0.87,0.0,96.0,,,,,,,[],,,,,,62.5,1.0,u,0.0,False,1341.9000000953674,81.0,58.0,40.0,False,,260.44723584986383,[],"[960, 540]",ColorTask,56.0,88.0,,,HRV,HRV_0300,2022-11-30 21:24:46
,wl-rdm,96,294640,0.0-6.88-0.88,0.0,97.0,,,,,,,[],,,,,,62.5,1.0,i,1.0,True,1253.0,76.0,58.0,40.0,False,,281.4675995239806,[],"[960, 540]",ColorTask,57.0,89.0,,,HRV,HRV_0300,2022-11-30 21:24:46
,wl-rdm,97,297124,0.0-6.89-0.89,0.0,98.0,,,,,,,[],,,,,,73.6,0.0,u,0.0,True,1116.7999999523163,67.0,58.0,40.0,False,,301.9992483943105,[],"[960, 540]",ColorTask,58.0,90.0,,,HRV,HRV_0300,2022-11-30 21:24:46
,wl-rdm,98,299774,0.0-6.90-0.90,0.0,99.0,,,,,,,[],,,,,,62.5,0.0,u,0.0,True,1189.0999999046326,66.0,58.0,40.0,False,,390.8694143269224,[],"[960, 540]",ColorTask,59.0,91.0,,,HRV,HRV_0300,2022-11-30 21:24:46
,wl-rdm,99,302273,0.0-6.91-0.91,0.0,100.0,,,,,,,[],,,,,,62.5,0.0,u,0.0,True,1165.3999998569489,62.0,58.0,40.0,False,,252.2643747743971,[],"[960, 540]",ColorTask,60.0,92.0,,,HRV,HRV_0300,2022-11-30 21:24:46
,wl-rdm,100,304833,0.0-6.92-0.92,0.0,101.0,,,,,,,[],,,,,,73.6,0.0,u,0.0,True,1163.9000000953674,70.0,58.0,40.0,False,,277.10662772045237,[],"[960, 540]",ColorTask,61.0,93.0,,,HRV,HRV_0300,2022-11-30 21:24:46
,wl-rdm,101,307473,0.0-6.93-0.93,0.0,102.0,,,,,,,[],,,,,,73.6,0.0,u,0.0,True,1210.7000002861023,73.0,58.0,40.0,False,,360.0668049308211,[],"[960, 540]",ColorTask,62.0,94.0,,,HRV,HRV_0300,2022-11-30 21:24:46
,wl-rdm,102,310074,0.0-6.94-0.94,0.0,103.0,,,,,,,[],,,,,,50.0,1.0,u,0.0,False,1220.8999998569489,74.0,58.0,40.0,False,,249.13375936848016,[],"[960, 540]",ColorTask,61.0,95.0,,,HRV,HRV_0300,2022-11-30 21:24:46
,wl-rdm,103,312707,0.0-6.95-0.95,0.0,104.0,,,,,,,[],,,,,,53.2,0.0,u,0.0,True,1247.0999999046326,70.0,58.0,40.0,False,,319.2289930315171,[],"[960, 540]",ColorTask,62.0,96.0,,,HRV,HRV_0300,2022-11-30 21:24:46
,wl-rdm,104,315374,0.0-6.96-0.96,0.0,105.0,,,,,,,[],,,,,,56.4,0.0,u,0.0,True,1257.0,67.0,58.0,40.0,False,,336.41890129435774,[],"[960, 540]",ColorTask,63.0,97.0,,,HRV,HRV_0300,2022-11-30 21:24:46
,wl-rdm,105,318054,0.0-6.97-0.97,0.0,106.0,,,,,,,[],,,,,,53.2,0.0,u,0.0,True,1392.6999998092651,82.0,58.0,40.0,False,,203.6102903443483,[],"[960, 540]",ColorTask,64.0,98.0,,,HRV,HRV_0300,2022-11-30 21:24:46
,wl-rdm,106,320624,0.0-6.98-0.98,0.0,107.0,,,,,,,[],,,,,,73.6,1.0,i,1.0,True,1216.4000000953674,73.0,58.0,40.0,False,,299.6542543742475,[],"[960, 540]",ColorTask,65.0,99.0,,,HRV,HRV_0300,2022-11-30 21:24:46
,wl-rdm,107,323191,0.0-6.99-0.99,0.0,108.0,,,,,,,[],,,,,,87.9,1.0,i,1.0,True,1211.8999998569489,73.0,58.0,40.0,False,,301.48331368759403,[],"[960, 540]",ColorTask,66.0,100.0,,,HRV,HRV_0300,2022-11-30 21:24:46
,wl-rdm,108,325757,0.0-6.100-0.100,0.0,109.0,,,,,,,[],,,,,,87.9,0.0,u,0.0,True,1159.2999999523163,69.0,58.0,40.0,False,,210.36148105763075,[],"[960, 540]",ColorTask,67.0,101.0,,,HRV,HRV_0300,2022-11-30 21:24:46
,wl-rdm,109,328341,0.0-6.101-0.101,0.0,110.0,,,,,,,[],,,,,,56.4,0.0,i,1.0,False,1298.3999998569489,69.0,58.0,40.0,False,,205.31234227156193,[],"[960, 540]",ColorTask,66.0,102.0,,,HRV,HRV_0300,2022-11-30 21:24:46
,wl-rdm,110,331216,0.0-6.102-0.102,0.0,111.0,,,,,,,[],,,,,,56.4,1.0,i,1.0,True,1471.3999998569489,80.0,58.0,40.0,False,,328.0168529156608,[],"[960, 540]",ColorTask,67.0,103.0,,,HRV,HRV_0300,2022-11-30 21:24:46
,wl-rdm,111,333794,0.0-6.103-0.103,0.0,112.0,,,,,,,[],,,,,,50.0,1.0,i,1.0,True,1328.5999999046326,80.0,58.0,40.0,False,,208.55385352634545,[],"[960, 540]",ColorTask,68.0,104.0,,,HRV,HRV_0300,2022-11-30 21:24:46
,wl-rdm,112,336540,0.0-6.104-0.104,0.0,113.0,,,,,,,[],,,,,,53.2,1.0,u,0.0,False,1424.0,86.0,58.0,40.0,False,,233.0021108610561,[],"[960, 540]",ColorTask,67.0,105.0,,,HRV,HRV_0300,2022-11-30 21:24:46
,wl-rdm,113,338990,0.0-6.105-0.105,0.0,114.0,,,,,,,[],,,,,,87.9,1.0,i,1.0,True,1154.9000000953674,70.0,58.0,40.0,False,,215.6197319256863,[],"[960, 540]",ColorTask,68.0,106.0,,,HRV,HRV_0300,2022-11-30 21:24:46
,wl-rdm,114,341973,0.0-6.106-0.106,0.0,115.0,,,,,,,[],,,,,,56.4,0.0,i,1.0,False,1469.5,87.0,58.0,40.0,False,,343.78942808019247,[],"[960, 540]",ColorTask,67.0,107.0,,,HRV,HRV_0300,2022-11-30 21:24:46
,wl-rdm,115,344507,0.0-6.107-0.107,0.0,116.0,,,,,,,[],,,,,,50.0,1.0,i,1.0,True,1217.4999997615814,67.0,58.0,40.0,False,,241.95187990335293,[],"[960, 540]",ColorTask,68.0,108.0,,,HRV,HRV_0300,2022-11-30 21:24:46
,wl-html-keyboard-response,116,373620,0.0-7.0-0.0,1.0,117.0,,,,,,,,27103.700000047684,1.0,0,,,,,,,,,,,,,,,,,,,,,,HRV,HRV_0300,2022-11-30 21:24:46
,wl-rdm,117,376274,0.0-8.0-0.0,1.0,118.0,,,,,,,[],,,,,,62.5,1.0,u,0.0,False,1321.4000000953674,81.0,58.0,40.0,False,,219.99117620577272,[],"[960, 540]",ColorTask,67.0,1.0,,,HRV,HRV_0300,2022-11-30 21:24:46
,wl-rdm,118,379007,0.0-8.1-0.1,1.0,119.0,,,,,,,[],,,,,,56.4,0.0,u,0.0,True,1370.3999998569489,83.0,58.0,40.0,False,,307.0527837016002,[],"[960, 540]",ColorTask,68.0,2.0,,,HRV,HRV_0300,2022-11-30 21:24:46
,wl-rdm,119,381890,0.0-8.2-0.2,1.0,120.0,,,,,,,[],,,,,,56.4,0.0,u,0.0,True,1559.7999999523163,87.0,58.0,40.0,False,,236.30160607227822,[],"[960, 540]",ColorTask,69.0,3.0,,,HRV,HRV_0300,2022-11-30 21:24:46
,wl-rdm,120,384641,0.0-8.3-0.3,1.0,121.0,,,,,,,[],,,,,,62.5,0.0,u,0.0,True,1420.1000001430511,79.0,58.0,40.0,False,,246.3738012269441,[],"[960, 540]",ColorTask,70.0,4.0,,,HRV,HRV_0300,2022-11-30 21:24:46
,wl-rdm,121,387258,0.0-8.4-0.4,1.0,122.0,,,,,,,[],,,,,,87.9,1.0,i,1.0,True,1335.5,81.0,58.0,40.0,False,,207.67100337072185,[],"[960, 540]",ColorTask,71.0,5.0,,,HRV,HRV_0300,2022-11-30 21:24:46
,wl-rdm,122,390073,0.0-8.5-0.5,1.0,123.0,,,,,,,[],,,,,,62.5,1.0,i,1.0,True,1418.0000002384186,86.0,58.0,40.0,False,,317.6655421741567,[],"[960, 540]",ColorTask,72.0,6.0,,,HRV,HRV_0300,2022-11-30 21:24:46
,wl-rdm,123,392725,0.0-8.6-0.6,1.0,124.0,,,,,,,[],,,,,,73.6,1.0,i,1.0,True,1365.5,81.0,58.0,40.0,False,,228.85144717118035,[],"[960, 540]",ColorTask,73.0,7.0,,,HRV,HRV_0300,2022-11-30 21:24:46
,wl-rdm,124,395341,0.0-8.7-0.7,1.0,125.0,,,,,,,[],,,,,,62.5,0.0,u,0.0,True,1329.9000000953674,72.0,58.0,40.0,False,,231.2185474514197,[],"[960, 540]",ColorTask,74.0,8.0,,,HRV,HRV_0300,2022-11-30 21:24:46
,wl-rdm,125,397757,0.0-8.8-0.8,1.0,126.0,,,,,,,[],,,,,,73.6,0.0,u,0.0,True,1149.1000001430511,64.0,58.0,40.0,False,,212.46644680876094,[],"[960, 540]",ColorTask,75.0,9.0,,,HRV,HRV_0300,2022-11-30 21:24:46
,wl-rdm,126,400974,0.0-8.9-0.9,1.0,127.0,,,,,,,[],,,,,,53.2,1.0,i,1.0,True,1805.5999999046326,109.0,58.0,40.0,False,,321.1767730302501,[],"[960, 540]",ColorTask,76.0,10.0,,,HRV,HRV_0300,2022-11-30 21:24:46
,wl-rdm,127,403507,0.0-8.10-0.10,1.0,128.0,,,,,,,[],,,,,,73.6,0.0,u,0.0,True,1149.5999999046326,69.0,58.0,40.0,False,,331.69732193865207,[],"[960, 540]",ColorTask,77.0,11.0,,,HRV,HRV_0300,2022-11-30 21:24:46
,wl-rdm,128,406058,0.0-8.11-0.11,1.0,129.0,,,,,,,[],,,,,,87.9,1.0,i,1.0,True,1105.9999997615814,67.0,58.0,40.0,False,,354.63144759427394,[],"[960, 540]",ColorTask,78.0,12.0,,,HRV,HRV_0300,2022-11-30 21:24:46
,wl-rdm,129,408973,0.0-8.12-0.12,1.0,130.0,,,,,,,[],,,,,,53.2,0.0,u,0.0,True,1605.0,90.0,58.0,40.0,False,,220.21454093923248,[],"[960, 540]",ColorTask,79.0,13.0,,,HRV,HRV_0300,2022-11-30 21:24:46
,wl-rdm,130,411506,0.0-8.13-0.13,1.0,131.0,,,,,,,[],,,,,,73.6,0.0,u,0.0,True,1100.4000000953674,61.0,58.0,40.0,False,,339.27817539266033,[],"[960, 540]",ColorTask,80.0,14.0,,,HRV,HRV_0300,2022-11-30 21:24:46
,wl-rdm,131,414846,0.0-8.14-0.14,1.0,132.0,,,,,,,[],,,,,,53.2,1.0,u,0.0,False,1869.0000002384186,107.0,58.0,40.0,False,,388.1669261616149,[],"[960, 540]",ColorTask,79.0,15.0,,,HRV,HRV_0300,2022-11-30 21:24:46
,wl-rdm,132,417640,0.0-8.15-0.15,1.0,133.0,,,,,,,[],,,,,,62.5,1.0,i,1.0,True,1403.2000002861023,79.0,58.0,40.0,False,,329.68741071196706,[],"[960, 540]",ColorTask,80.0,16.0,,,HRV,HRV_0300,2022-11-30 21:24:46
,wl-rdm,133,420340,0.0-8.16-0.16,1.0,134.0,,,,,,,[],,,,,,87.9,1.0,i,1.0,True,1203.0,70.0,58.0,40.0,False,,338.5210355023754,[],"[960, 540]",ColorTask,81.0,17.0,,,HRV,HRV_0300,2022-11-30 21:24:46
,wl-rdm,134,423276,0.0-8.17-0.17,1.0,135.0,,,,,,,[],,,,,,53.2,0.0,i,1.0,False,1467.2000000476837,89.0,58.0,40.0,False,,399.95110010504607,[],"[960, 540]",ColorTask,80.0,18.0,,,HRV,HRV_0300,2022-11-30 21:24:46
,wl-rdm,135,425941,0.0-8.18-0.18,1.0,136.0,,,,,,,[],,,,,,53.2,0.0,u,0.0,True,1273.7999999523163,77.0,58.0,40.0,False,,310.7738584575233,[],"[960, 540]",ColorTask,81.0,19.0,,,HRV,HRV_0300,2022-11-30 21:24:46
,wl-rdm,136,428441,0.0-8.19-0.19,1.0,137.0,,,,,,,[],,,,,,87.9,1.0,i,1.0,True,1136.0999999046326,69.0,58.0,40.0,False,,286.03185466096454,[],"[960, 540]",ColorTask,82.0,20.0,,,HRV,HRV_0300,2022-11-30 21:24:46
,wl-rdm,137,431206,0.0-8.20-0.20,1.0,138.0,,,,,,,[],,,,,,53.2,0.0,u,0.0,True,1351.5,74.0,58.0,40.0,False,,350.6323378300238,[],"[960, 540]",ColorTask,83.0,21.0,,,HRV,HRV_0300,2022-11-30 21:24:46
,wl-rdm,138,433824,0.0-8.21-0.21,1.0,139.0,,,,,,,[],,,,,,50.0,0.0,u,0.0,True,1302.7000002861023,68.0,58.0,40.0,False,,244.803541582464,[],"[960, 540]",ColorTask,84.0,22.0,,,HRV,HRV_0300,2022-11-30 21:24:46
,wl-rdm,139,436540,0.0-8.22-0.22,1.0,140.0,,,,,,,[],,,,,,62.5,1.0,u,0.0,False,1332.5999999046326,71.0,58.0,40.0,False,,325.18737432530645,[],"[960, 540]",ColorTask,83.0,23.0,,,HRV,HRV_0300,2022-11-30 21:24:46
,wl-rdm,140,438960,0.0-8.23-0.23,1.0,141.0,,,,,,,[],,,,,,62.5,0.0,u,0.0,True,1080.7000000476837,65.0,58.0,40.0,False,,231.80822738869512,[],"[960, 540]",ColorTask,84.0,24.0,,,HRV,HRV_0300,2022-11-30 21:24:46
,wl-rdm,141,441657,0.0-8.24-0.24,1.0,142.0,,,,,,,[],,,,,,56.4,0.0,u,0.0,True,1257.5999999046326,75.0,58.0,40.0,False,,370.6989089245168,[],"[960, 540]",ColorTask,85.0,25.0,,,HRV,HRV_0300,2022-11-30 21:24:46
,wl-rdm,142,444190,0.0-8.25-0.25,1.0,143.0,,,,,,,[],,,,,,87.9,1.0,i,1.0,True,1245.0,72.0,58.0,40.0,False,,227.5948266135326,[],"[960, 540]",ColorTask,86.0,26.0,,,HRV,HRV_0300,2022-11-30 21:24:46
,wl-rdm,143,446740,0.0-8.26-0.26,1.0,144.0,,,,,,,[],,,,,,50.0,1.0,u,0.0,False,1240.0000002384186,75.0,58.0,40.0,False,,236.86161220038844,[],"[960, 540]",ColorTask,85.0,27.0,,,HRV,HRV_0300,2022-11-30 21:24:46
,wl-rdm,144,449607,0.0-8.27-0.27,1.0,145.0,,,,,,,[],,,,,,50.0,0.0,u,0.0,True,1428.4000000953674,86.0,58.0,40.0,False,,370.67864060104284,[],"[960, 540]",ColorTask,86.0,28.0,,,HRV,HRV_0300,2022-11-30 21:24:46
,wl-rdm,145,452557,0.0-8.28-0.28,1.0,146.0,,,,,,,[],,,,,,73.6,1.0,i,1.0,True,1622.9000000953674,98.0,58.0,40.0,False,,242.67858852651318,[],"[960, 540]",ColorTask,87.0,29.0,,,HRV,HRV_0300,2022-11-30 21:24:46
,wl-rdm,146,455307,0.0-8.29-0.29,1.0,147.0,,,,,,,[],,,,,,56.4,0.0,u,0.0,True,1382.5,83.0,58.0,40.0,False,,314.82559542719036,[],"[960, 540]",ColorTask,88.0,30.0,,,HRV,HRV_0300,2022-11-30 21:24:46
,wl-rdm,147,457957,0.0-8.30-0.30,1.0,148.0,,,,,,,[],,,,,,87.9,0.0,u,0.0,True,1238.8999998569489,75.0,58.0,40.0,False,,327.5713955728791,[],"[960, 540]",ColorTask,89.0,31.0,,,HRV,HRV_0300,2022-11-30 21:24:46
,wl-rdm,148,460274,0.0-8.31-0.31,1.0,149.0,,,,,,,[],,,,,,87.9,0.0,u,0.0,True,972.0,59.0,58.0,40.0,False,,262.53387735246423,[],"[960, 540]",ColorTask,90.0,32.0,,,HRV,HRV_0300,2022-11-30 21:24:46
,wl-rdm,149,462490,0.0-8.32-0.32,1.0,150.0,,,,,,,[],,,,,,53.2,1.0,u,0.0,False,902.0999999046326,55.0,58.0,40.0,False,,244.38978044468874,[],"[960, 540]",ColorTask,89.0,33.0,,,HRV,HRV_0300,2022-11-30 21:24:46
,wl-rdm,150,465090,0.0-8.33-0.33,1.0,151.0,,,,,,,[],,,,,,73.6,1.0,i,1.0,True,1142.6000001430511,69.0,58.0,40.0,False,,373.1042462729623,[],"[960, 540]",ColorTask,90.0,34.0,,,HRV,HRV_0300,2022-11-30 21:24:46
,wl-rdm,151,468040,0.0-8.34-0.34,1.0,152.0,,,,,,,[],,,,,,50.0,1.0,i,1.0,True,1569.1000001430511,95.0,58.0,40.0,False,,300.40182269195645,[],"[960, 540]",ColorTask,91.0,35.0,,,HRV,HRV_0300,2022-11-30 21:24:46
,wl-rdm,152,470790,0.0-8.35-0.35,1.0,153.0,,,,,,,[],,,,,,53.2,0.0,u,0.0,True,1396.0,84.0,58.0,40.0,False,,274.7850999936025,[],"[960, 540]",ColorTask,92.0,36.0,,,HRV,HRV_0300,2022-11-30 21:24:46
,wl-rdm,153,473540,0.0-8.36-0.36,1.0,154.0,,,,,,,[],,,,,,56.4,1.0,u,0.0,False,1423.1000001430511,86.0,58.0,40.0,False,,262.5802081547256,[],"[960, 540]",ColorTask,91.0,37.0,,,HRV,HRV_0300,2022-11-30 21:24:46
,wl-rdm,154,476324,0.0-8.37-0.37,1.0,155.0,,,,,,,[],,,,,,73.6,1.0,i,1.0,True,1348.3000001907349,81.0,58.0,40.0,False,,377.0885689429439,[],"[960, 540]",ColorTask,92.0,38.0,,,HRV,HRV_0300,2022-11-30 21:24:46
,wl-rdm,155,478990,0.0-8.38-0.38,1.0,156.0,,,,,,,[],,,,,,50.0,0.0,u,0.0,True,1304.6999998092651,79.0,58.0,40.0,False,,281.21044815094916,[],"[960, 540]",ColorTask,93.0,39.0,,,HRV,HRV_0300,2022-11-30 21:24:46
,wl-rdm,156,481608,0.0-8.39-0.39,1.0,157.0,,,,,,,[],,,,,,62.5,1.0,i,1.0,True,1344.6000001430511,81.0,58.0,40.0,False,,211.38096951869193,[],"[960, 540]",ColorTask,94.0,40.0,,,HRV,HRV_0300,2022-11-30 21:24:46
,wl-rdm,157,484174,0.0-8.40-0.40,1.0,158.0,,,,,,,[],,,,,,73.6,0.0,u,0.0,True,1179.7999999523163,71.0,58.0,40.0,False,,302.88782701777546,[],"[960, 540]",ColorTask,95.0,41.0,,,HRV,HRV_0300,2022-11-30 21:24:46
,wl-rdm,158,486574,0.0-8.41-0.41,1.0,159.0,,,,,,,[],,,,,,87.9,1.0,i,1.0,True,1096.5,66.0,58.0,40.0,False,,231.27157810576392,[],"[960, 540]",ColorTask,96.0,42.0,,,HRV,HRV_0300,2022-11-30 21:24:46
,wl-rdm,159,489291,0.0-8.42-0.42,1.0,160.0,,,,,,,[],,,,,,50.0,1.0,i,1.0,True,1375.4000000953674,83.0,58.0,40.0,False,,264.02463354523445,[],"[960, 540]",ColorTask,97.0,43.0,,,HRV,HRV_0300,2022-11-30 21:24:46
,wl-rdm,160,491524,0.0-8.43-0.43,1.0,161.0,,,,,,,[],,,,,,73.6,0.0,u,0.0,True,941.0999999046326,57.0,58.0,40.0,False,,216.72995951964197,[],"[960, 540]",ColorTask,98.0,44.0,,,HRV,HRV_0300,2022-11-30 21:24:46
,wl-rdm,161,494024,0.0-8.44-0.44,1.0,162.0,,,,,,,[],,,,,,62.5,0.0,u,0.0,True,1045.9000000953674,63.0,58.0,40.0,False,,373.5872141545834,[],"[960, 540]",ColorTask,99.0,45.0,,,HRV,HRV_0300,2022-11-30 21:24:46
,wl-rdm,162,496459,0.0-8.45-0.45,1.0,163.0,,,,,,,[],,,,,,53.2,0.0,u,0.0,True,969.3000001907349,59.0,58.0,40.0,False,,398.2252096624919,[],"[960, 540]",ColorTask,100.0,46.0,,,HRV,HRV_0300,2022-11-30 21:24:46
,wl-rdm,163,498957,0.0-8.46-0.46,1.0,164.0,,,,,,,[],,,,,,73.6,1.0,i,1.0,True,1106.3999998569489,67.0,58.0,40.0,False,,309.96311569013983,[],"[960, 540]",ColorTask,101.0,47.0,,,HRV,HRV_0300,2022-11-30 21:24:46
,wl-rdm,164,501340,0.0-8.47-0.47,1.0,165.0,,,,,,,[],,,,,,62.5,0.0,u,0.0,True,1048.2000000476837,63.0,58.0,40.0,False,,253.30270371394585,[],"[960, 540]",ColorTask,102.0,48.0,,,HRV,HRV_0300,2022-11-30 21:24:46
,wl-rdm,165,504007,0.0-8.48-0.48,1.0,166.0,,,,,,,[],,,,,,53.2,1.0,i,1.0,True,1228.5000002384186,74.0,58.0,40.0,False,,376.47620203309776,[],"[960, 540]",ColorTask,103.0,49.0,,,HRV,HRV_0300,2022-11-30 21:24:46
,wl-rdm,166,506707,0.0-8.49-0.49,1.0,167.0,,,,,,,[],,,,,,62.5,0.0,u,0.0,True,1316.7999999523163,79.0,58.0,40.0,False,,312.8053133756234,[],"[960, 540]",ColorTask,104.0,50.0,,,HRV,HRV_0300,2022-11-30 21:24:46
,wl-rdm,167,509690,0.0-8.50-0.50,1.0,168.0,,,,,,,[],,,,,,56.4,1.0,i,1.0,True,1685.7000000476837,102.0,58.0,40.0,False,,215.80279355265895,[],"[960, 540]",ColorTask,105.0,51.0,,,HRV,HRV_0300,2022-11-30 21:24:46
,wl-rdm,168,512174,0.0-8.51-0.51,1.0,169.0,,,,,,,[],,,,,,73.6,0.0,u,0.0,True,1121.5000002384186,68.0,58.0,40.0,False,,291.110877543788,[],"[960, 540]",ColorTask,106.0,52.0,,,HRV,HRV_0300,2022-11-30 21:24:46
,wl-rdm,169,514257,0.0-8.52-0.52,1.0,170.0,,,,,,,[],,,,,,87.9,0.0,u,0.0,True,735.9000000953674,45.0,58.0,40.0,False,,250.99349178567368,[],"[960, 540]",ColorTask,107.0,53.0,,,HRV,HRV_0300,2022-11-30 21:24:46
,wl-rdm,170,517074,0.0-8.53-0.53,1.0,171.0,,,,,,,[],,,,,,62.5,0.0,u,0.0,True,1409.2999999523163,85.0,58.0,40.0,False,,346.60851473755736,[],"[960, 540]",ColorTask,108.0,54.0,,,HRV,HRV_0300,2022-11-30 21:24:46
,wl-rdm,171,520126,0.0-8.54-0.54,1.0,172.0,,,,,,,[],,,,,,73.6,1.0,i,1.0,True,1763.1000001430511,106.0,58.0,40.0,False,,232.16602494713229,[],"[960, 540]",ColorTask,109.0,55.0,,,HRV,HRV_0300,2022-11-30 21:24:46
,wl-rdm,172,522874,0.0-8.55-0.55,1.0,173.0,,,,,,,[],,,,,,56.4,0.0,u,0.0,True,1308.9000000953674,79.0,58.0,40.0,False,,356.6020879438654,[],"[960, 540]",ColorTask,110.0,56.0,,,HRV,HRV_0300,2022-11-30 21:24:46
,wl-rdm,173,525157,0.0-8.56-0.56,1.0,174.0,,,,,,,[],,,,,,87.9,0.0,u,0.0,True,955.5999999046326,58.0,58.0,40.0,False,,264.75138683297115,[],"[960, 540]",ColorTask,111.0,57.0,,,HRV,HRV_0300,2022-11-30 21:24:46
,wl-rdm,174,527474,0.0-8.57-0.57,1.0,175.0,,,,,,,[],,,,,,73.6,1.0,i,1.0,True,965.9000000953674,59.0,58.0,40.0,False,,268.4056670190954,[],"[960, 540]",ColorTask,112.0,58.0,,,HRV,HRV_0300,2022-11-30 21:24:46
,wl-rdm,175,529957,0.0-8.58-0.58,1.0,176.0,,,,,,,[],,,,,,73.6,1.0,i,1.0,True,1164.0,70.0,58.0,40.0,False,,241.69030938193853,[],"[960, 540]",ColorTask,113.0,59.0,,,HRV,HRV_0300,2022-11-30 21:24:46
,wl-rdm,176,532341,0.0-8.59-0.59,1.0,177.0,,,,,,,[],,,,,,53.2,1.0,u,0.0,False,1081.7999999523163,65.0,58.0,40.0,False,,226.13059517037016,[],"[960, 540]",ColorTask,112.0,60.0,,,HRV,HRV_0300,2022-11-30 21:24:46
,wl-rdm,177,535691,0.0-8.60-0.60,1.0,178.0,,,,,,,[],,,,,,50.0,1.0,u,0.0,False,1933.9999997615814,116.0,58.0,40.0,False,,336.6228566702442,[],"[960, 540]",ColorTask,111.0,61.0,,,HRV,HRV_0300,2022-11-30 21:24:46
,wl-rdm,178,538707,0.0-8.61-0.61,1.0,179.0,,,,,,,[],,,,,,53.2,1.0,i,1.0,True,1575.7000000476837,95.0,58.0,40.0,False,,356.74038885650555,[],"[960, 540]",ColorTask,112.0,62.0,,,HRV,HRV_0300,2022-11-30 21:24:46
,wl-rdm,179,541540,0.0-8.62-0.62,1.0,180.0,,,,,,,[],,,,,,50.0,1.0,i,1.0,True,1514.2999999523163,91.0,58.0,40.0,False,,240.4383846097284,[],"[960, 540]",ColorTask,113.0,63.0,,,HRV,HRV_0300,2022-11-30 21:24:46
,wl-rdm,180,544324,0.0-8.63-0.63,1.0,181.0,,,,,,,[],,,,,,56.4,0.0,i,1.0,False,1514.9000000953674,91.0,58.0,40.0,False,,214.94311894108134,[],"[960, 540]",ColorTask,112.0,64.0,,,HRV,HRV_0300,2022-11-30 21:24:46
,wl-rdm,181,546957,0.0-8.64-0.64,1.0,182.0,,,,,,,[],,,,,,50.0,0.0,i,1.0,False,1355.5,82.0,58.0,40.0,False,,201.2971679220691,[],"[960, 540]",ColorTask,111.0,65.0,,,HRV,HRV_0300,2022-11-30 21:24:46
,wl-rdm,182,549923,0.0-8.65-0.65,1.0,183.0,,,,,,,[],,,,,,56.4,1.0,i,1.0,True,1499.3999998569489,90.0,58.0,40.0,False,,395.3944918274941,[],"[960, 540]",ColorTask,112.0,66.0,,,HRV,HRV_0300,2022-11-30 21:24:46
,wl-rdm,183,553074,0.0-8.66-0.66,1.0,184.0,,,,,,,[],,,,,,50.0,1.0,u,0.0,False,1825.7000000476837,110.0,58.0,40.0,False,,252.7554486069285,[],"[960, 540]",ColorTask,111.0,67.0,,,HRV,HRV_0300,2022-11-30 21:24:46
,wl-rdm,184,555873,0.0-8.67-0.67,1.0,185.0,,,,,,,[],,,,,,62.5,1.0,i,1.0,True,1451.1000001430511,88.0,58.0,40.0,False,,253.81565230095867,[],"[960, 540]",ColorTask,112.0,68.0,,,HRV,HRV_0300,2022-11-30 21:24:46
,wl-rdm,185,558440,0.0-8.68-0.68,1.0,186.0,,,,,,,[],,,,,,87.9,1.0,i,1.0,True,1209.0999999046326,73.0,58.0,40.0,False,,286.0900888334204,[],"[960, 540]",ColorTask,113.0,69.0,,,HRV,HRV_0300,2022-11-30 21:24:46
,wl-rdm,186,561140,0.0-8.69-0.69,1.0,187.0,,,,,,,[],,,,,,56.4,1.0,i,1.0,True,1349.1000001430511,81.0,58.0,40.0,False,,270.282625636013,[],"[960, 540]",ColorTask,114.0,70.0,,,HRV,HRV_0300,2022-11-30 21:24:46
,wl-rdm,187,563840,0.0-8.70-0.70,1.0,188.0,,,,,,,[],,,,,,50.0,0.0,u,0.0,True,1327.0999999046326,80.0,58.0,40.0,False,,314.03386863060996,[],"[960, 540]",ColorTask,115.0,71.0,,,HRV,HRV_0300,2022-11-30 21:24:46
,wl-rdm,188,566090,0.0-8.71-0.71,1.0,189.0,,,,,,,[],,,,,,87.9,0.0,u,0.0,True,933.5000002384186,57.0,58.0,40.0,False,,221.055268733452,[],"[960, 540]",ColorTask,116.0,72.0,,,HRV,HRV_0300,2022-11-30 21:24:46
,wl-rdm,189,568690,0.0-8.72-0.72,1.0,190.0,,,,,,,[],,,,,,62.5,1.0,i,1.0,True,1282.5,77.0,58.0,40.0,False,,247.1778083517264,[],"[960, 540]",ColorTask,117.0,73.0,,,HRV,HRV_0300,2022-11-30 21:24:46
,wl-rdm,190,571090,0.0-8.73-0.73,1.0,191.0,,,,,,,[],,,,,,87.9,1.0,i,1.0,True,1067.5,64.0,58.0,40.0,False,,256.00619050461836,[],"[960, 540]",ColorTask,118.0,74.0,,,HRV,HRV_0300,2022-11-30 21:24:46
,wl-rdm,191,573556,0.0-8.74-0.74,1.0,192.0,,,,,,,[],,,,,,62.5,1.0,i,1.0,True,1073.0999999046326,65.0,58.0,40.0,False,,304.7133443215239,[],"[960, 540]",ColorTask,119.0,75.0,,,HRV,HRV_0300,2022-11-30 21:24:46
,wl-rdm,192,576073,0.0-8.75-0.75,1.0,193.0,,,,,,,[],,,,,,56.4,0.0,u,0.0,True,1200.6000001430511,73.0,58.0,40.0,False,,243.04218845567695,[],"[960, 540]",ColorTask,120.0,76.0,,,HRV,HRV_0300,2022-11-30 21:24:46
,wl-rdm,193,578857,0.0-8.76-0.76,1.0,194.0,,,,,,,[],,,,,,50.0,0.0,u,0.0,True,1376.5999999046326,83.0,58.0,40.0,False,,317.72848296989105,[],"[960, 540]",ColorTask,121.0,77.0,,,HRV,HRV_0300,2022-11-30 21:24:46
,wl-rdm,194,581506,0.0-8.77-0.77,1.0,195.0,,,,,,,[],,,,,,53.2,0.0,u,0.0,True,1207.0,73.0,58.0,40.0,False,,369.3071340916572,[],"[960, 540]",ColorTask,122.0,78.0,,,HRV,HRV_0300,2022-11-30 21:24:46
,wl-rdm,195,584173,0.0-8.78-0.78,1.0,196.0,,,,,,,[],,,,,,56.4,1.0,u,0.0,False,1229.4000000953674,74.0,58.0,40.0,False,,378.81872752029926,[],"[960, 540]",ColorTask,121.0,79.0,,,HRV,HRV_0300,2022-11-30 21:24:46
,wl-rdm,196,586775,0.0-8.79-0.79,1.0,197.0,,,,,,,[],,,,,,73.6,1.0,i,1.0,True,1262.7999999523163,76.0,58.0,40.0,False,,278.7663753536043,[],"[960, 540]",ColorTask,122.0,80.0,,,HRV,HRV_0300,2022-11-30 21:24:46
,wl-rdm,197,589540,0.0-8.80-0.80,1.0,198.0,,,,,,,[],,,,,,53.2,1.0,i,1.0,True,1314.0999999046326,79.0,58.0,40.0,False,,392.07633246712385,[],"[960, 540]",ColorTask,123.0,81.0,,,HRV,HRV_0300,2022-11-30 21:24:46
,wl-rdm,198,592457,0.0-8.81-0.81,1.0,199.0,,,,,,,[],,,,,,50.0,0.0,u,0.0,True,1484.7999999523163,90.0,58.0,40.0,False,,359.26434849437766,[],"[960, 540]",ColorTask,124.0,82.0,,,HRV,HRV_0300,2022-11-30 21:24:46
,wl-rdm,199,595290,0.0-8.82-0.82,1.0,200.0,,,,,,,[],,,,,,73.6,0.0,u,0.0,True,1401.7999999523163,85.0,58.0,40.0,False,,342.5204029686253,[],"[960, 540]",ColorTask,125.0,83.0,,,HRV,HRV_0300,2022-11-30 21:24:46
,wl-rdm,200,597908,0.0-8.83-0.83,1.0,201.0,,,,,,,[],,,,,,56.4,0.0,u,0.0,True,1274.1000001430511,77.0,58.0,40.0,False,,279.2631714540239,[],"[960, 540]",ColorTask,126.0,84.0,,,HRV,HRV_0300,2022-11-30 21:24:46
,wl-rdm,201,600590,0.0-8.84-0.84,1.0,202.0,,,,,,,[],,,,,,56.4,0.0,u,0.0,True,1353.8999998569489,82.0,58.0,40.0,False,,259.1496132266989,[],"[960, 540]",ColorTask,127.0,85.0,,,HRV,HRV_0300,2022-11-30 21:24:46
,wl-rdm,202,603474,0.0-8.85-0.85,1.0,203.0,,,,,,,[],,,,,,53.2,1.0,u,0.0,False,1518.3000001907349,92.0,58.0,40.0,False,,279.82187277344786,[],"[960, 540]",ColorTask,126.0,86.0,,,HRV,HRV_0300,2022-11-30 21:24:46
,wl-rdm,203,606173,0.0-8.86-0.86,1.0,204.0,,,,,,,[],,,,,,53.2,0.0,u,0.0,True,1363.7000002861023,82.0,58.0,40.0,False,,253.05772156395182,[],"[960, 540]",ColorTask,127.0,87.0,,,HRV,HRV_0300,2022-11-30 21:24:46
,wl-rdm,204,608557,0.0-8.87-0.87,1.0,205.0,,,,,,,[],,,,,,87.9,0.0,u,0.0,True,1012.3000001907349,61.0,58.0,40.0,False,,295.71609289053885,[],"[960, 540]",ColorTask,128.0,88.0,,,HRV,HRV_0300,2022-11-30 21:24:46
,wl-rdm,205,610757,0.0-8.88-0.88,1.0,206.0,,,,,,,[],,,,,,73.6,0.0,u,0.0,True,872.6000001430511,53.0,58.0,40.0,False,,240.31466370111306,[],"[960, 540]",ColorTask,129.0,89.0,,,HRV,HRV_0300,2022-11-30 21:24:46
,wl-rdm,206,612992,0.0-8.89-0.89,1.0,207.0,,,,,,,[],,,,,,62.5,0.0,u,0.0,True,944.5,57.0,58.0,40.0,False,,212.7164543077839,[],"[960, 540]",ColorTask,130.0,90.0,,,HRV,HRV_0300,2022-11-30 21:24:46
,wl-rdm,207,615726,0.0-8.90-0.90,1.0,208.0,,,,,,,[],,,,,,53.2,1.0,u,0.0,False,1448.5999999046326,87.0,58.0,40.0,False,,214.40593960706735,[],"[960, 540]",ColorTask,129.0,91.0,,,HRV,HRV_0300,2022-11-30 21:24:46
,wl-rdm,208,618024,0.0-8.91-0.91,1.0,209.0,,,,,,,[],,,,,,87.9,0.0,u,0.0,True,1018.0000002384186,62.0,58.0,40.0,False,,213.2981670915871,[],"[960, 540]",ColorTask,130.0,92.0,,,HRV,HRV_0300,2022-11-30 21:24:46
,wl-rdm,209,620092,0.0-8.92-0.92,1.0,210.0,,,,,,,[],,,,,,73.6,0.0,u,0.0,True,714.2000000476837,43.0,58.0,40.0,False,,290.51593412864554,[],"[960, 540]",ColorTask,131.0,93.0,,,HRV,HRV_0300,2022-11-30 21:24:46
,wl-rdm,210,623157,0.0-8.93-0.93,1.0,211.0,,,,,,,[],,,,,,56.4,1.0,i,1.0,True,1680.3999998569489,101.0,58.0,40.0,False,,300.935029301487,[],"[960, 540]",ColorTask,132.0,94.0,,,HRV,HRV_0300,2022-11-30 21:24:46
,wl-rdm,211,626058,0.0-8.94-0.94,1.0,212.0,,,,,,,[],,,,,,53.2,0.0,i,1.0,False,1567.5,95.0,58.0,40.0,False,,239.26005342152317,[],"[960, 540]",ColorTask,131.0,95.0,,,HRV,HRV_0300,2022-11-30 21:24:46
,wl-rdm,212,628824,0.0-8.95-0.95,1.0,213.0,,,,,,,[],,,,,,50.0,1.0,i,1.0,True,1427.8999998569489,86.0,58.0,40.0,False,,265.63652267511196,[],"[960, 540]",ColorTask,132.0,96.0,,,HRV,HRV_0300,2022-11-30 21:24:46
,wl-rdm,213,631424,0.0-8.96-0.96,1.0,214.0,,,,,,,[],,,,,,62.5,1.0,i,1.0,True,1320.1000001430511,80.0,58.0,40.0,False,,206.3836527445814,[],"[960, 540]",ColorTask,133.0,97.0,,,HRV,HRV_0300,2022-11-30 21:24:46
,wl-rdm,214,634224,0.0-8.97-0.97,1.0,215.0,,,,,,,[],,,,,,56.4,1.0,i,1.0,True,1411.6000001430511,85.0,58.0,40.0,False,,313.13019274243595,[],"[960, 540]",ColorTask,134.0,98.0,,,HRV,HRV_0300,2022-11-30 21:24:46
,wl-rdm,215,636492,0.0-8.98-0.98,1.0,216.0,,,,,,,[],,,,,,62.5,0.0,u,0.0,True,966.2999999523163,58.0,58.0,40.0,False,,230.6250869475892,[],"[960, 540]",ColorTask,135.0,99.0,,,HRV,HRV_0300,2022-11-30 21:24:46
,wl-rdm,216,638925,0.0-8.99-0.99,1.0,217.0,,,,,,,[],,,,,,50.0,0.0,u,0.0,True,1106.8999998569489,67.0,58.0,40.0,False,,264.18868645788154,[],"[960, 540]",ColorTask,136.0,100.0,,,HRV,HRV_0300,2022-11-30 21:24:46
,wl-rdm,217,641108,0.0-8.100-0.100,1.0,218.0,,,,,,,[],,,,,,87.9,0.0,u,0.0,True,865.2000000476837,52.0,58.0,40.0,False,,265.76294466681173,[],"[960, 540]",ColorTask,137.0,101.0,,,HRV,HRV_0300,2022-11-30 21:24:46
,wl-rdm,218,644025,0.0-8.101-0.101,1.0,219.0,,,,,,,[],,,,,,50.0,1.0,u,0.0,False,1594.7000000476837,96.0,58.0,40.0,False,,249.59811691917542,[],"[960, 540]",ColorTask,136.0,102.0,,,HRV,HRV_0300,2022-11-30 21:24:46
,wl-rdm,219,646858,0.0-8.102-0.102,1.0,220.0,,,,,,,[],,,,,,50.0,0.0,u,0.0,True,1392.3999998569489,84.0,58.0,40.0,False,,367.08662263485365,[],"[960, 540]",ColorTask,137.0,103.0,,,HRV,HRV_0300,2022-11-30 21:24:46
,wl-rdm,220,649258,0.0-8.103-0.103,1.0,221.0,,,,,,,[],,,,,,87.9,1.0,i,1.0,True,967.7999999523163,59.0,58.0,40.0,False,,356.0445978651859,[],"[960, 540]",ColorTask,138.0,104.0,,,HRV,HRV_0300,2022-11-30 21:24:46
,wl-rdm,221,651591,0.0-8.104-0.104,1.0,222.0,,,,,,,[],,,,,,87.9,0.0,u,0.0,True,904.1000001430511,55.0,58.0,40.0,False,,347.3907868733262,[],"[960, 540]",ColorTask,139.0,105.0,,,HRV,HRV_0300,2022-11-30 21:24:46
,wl-rdm,222,654975,0.0-8.105-0.105,1.0,223.0,,,,,,,[],,,,,,56.4,1.0,i,1.0,True,2095.5,126.0,58.0,40.0,False,,223.6249980958347,[],"[960, 540]",ColorTask,140.0,106.0,,,HRV,HRV_0300,2022-11-30 21:24:46
,wl-rdm,223,658274,0.0-8.106-0.106,1.0,224.0,,,,,,,[],,,,,,50.0,1.0,i,1.0,True,1868.2000000476837,113.0,58.0,40.0,False,,359.9302397031611,[],"[960, 540]",ColorTask,141.0,107.0,,,HRV,HRV_0300,2022-11-30 21:24:46
,wl-rdm,224,661141,0.0-8.107-0.107,1.0,225.0,,,,,,,[],,,,,,56.4,1.0,i,1.0,True,1539.7999999523163,93.0,58.0,40.0,False,,249.85835373454603,[],"[960, 540]",ColorTask,142.0,108.0,,,HRV,HRV_0300,2022-11-30 21:24:46
,wl-html-button-response,225,665929,0.0-9.0-0.0,,,,,,,,,,4780.699999809265,,0,,,,,,,,,,,,,,,,,,,,<h3>End of this session. Thank you!</h3><br>,['Close window'],HRV,HRV_0300,2022-11-30 21:24:46
