success,trial_type,trial_index,time_elapsed,internal_node_id,Block,TrialNumber,TrialTime,trialTimeDiff,FPS_avg,FPS_med,FPS_mode,TrialDur,winResizeTime,rt,block,button_pressed,MotCoh,MotDir,ColCoh,Color,ChoiceKey,Choice,Accuracy,RT,nFrames,FPS,PPD,missTrial,missTrialMsg,onsetDelay,fullScreenExitTime,canvCenter,TrialType,Score,BlockTrial,stimulus,button_labels,exp,subjectId,date
True,fullscreen,0,4300,0.0-0.0,0.0,1.0,,,,,,,,,,,,,,,,,,,,,,,,,,,,,,,,HRV,HRV_0233,2022-11-30 19:27:08
,wl-check-fps,1,9300,0.0-1.0,0.0,2.0,"[5081.7, 5096.3, 5112.8, 5129.5, 5146.4, 5162.7, 5179.7, 5196.5, 5212.8, 5229.4, 5246.5, 5262.9, 5279.6, 5296.3, 5312.9, 5329.4, 5346.1, 5362.9, 5379.5, 5396.2, 5412.9, 5429.6, 5446.1, 5462.8, 5479.6, 5496.3, 5512.8, 5529.5, 5546.3, 5563, 5579.6, 5596.2, 5612.9, 5629.5, 5646.4, 5662.9, 5679.7, 5696.2, 5713, 5729.7, 5746.1, 5762.9, 5779.7, 5796.7, 5812.9, 5829.7, 5846.2, 5862.8, 5879.5, 5896.3, 5912.8, 5929.7, 5946.2, 5963.1, 5979.6, 5996.3, 6012.9, 6029.6, 6046.3, 6063, 6079.6, 6096.3, 6112.9, 6129.5, 6146.4, 6163.1, 6179.5, 6196.3, 6212.9, 6229.6, 6246, 6262.9, 6279.5, 6296.2, 6312.8, 6329.7, 6346.3, 6362.8, 6379.5, 6396.2, 6413, 6429.4, 6446.2, 6462.8, 6479.5, 6496.1, 6512.9, 6529.7, 6546.4, 6562.9, 6579.6, 6596.2, 6612.9, 6629.6, 6646.2, 6662.9, 6679.6, 6696.1, 6712.8, 6729.5, 6746.5, 6762.7, 6779.7, 6796.7, 6813, 6829.5, 6846.3, 6863, 6879.6, 6896.1, 6913, 6929.7, 6946.3, 6963, 6979.8, 6996.2, 7013, 7029.7, 7046.5, 7062.8, 7079.7, 7096.3, 7112.7, 7129.7, 7146.3, 7163, 7179.4, 7196.3, 7212.9, 7229.6, 7246.3, 7262.9, 7279.6, 7296.2, 7312.9, 7329.8, 7346.4, 7363, 7379.5, 7396.2, 7412.9, 7429.6, 7446.2, 7463, 7479.6, 7496.3, 7512.9, 7529.6, 7546.3, 7563.1, 7579.6, 7596.3, 7612.8, 7629.5, 7646.5, 7662.8, 7679.6, 7696.4, 7712.7, 7729.5, 7746.2, 7763.2, 7779.6, 7796.8, 7813, 7829.7, 7846.3, 7862.8, 7879.4, 7896.3, 7912.9, 7929.7, 7946.4, 7962.9, 7979.5, 7996.4, 8013, 8029.4, 8046.2, 8063, 8079.5, 8096.2, 8113, 8129.5, 8146.2, 8163.3, 8179.6, 8196.1, 8213.2, 8229.8, 8246.3, 8262.9, 8279.6, 8296.2, 8313, 8329.6, 8346.4, 8363, 8379.6, 8396.3, 8412.9, 8429.6, 8446.3, 8462.8, 8479.5, 8496.3, 8512.9, 8529.7, 8546.2, 8563, 8579.6, 8596.4, 8613, 8629.5, 8646.1, 8662.9, 8679.4, 8696.3, 8712.8, 8729.8, 8746.5, 8763.2, 8780, 8797.3, 8812.9, 8829.6, 8846.4, 8863, 8879.5, 8896.1, 8912.9, 8929.8, 8946.6, 8963, 8979.9, 8996.2, 9012.9, 9029.5, 9046.4, 9062.8, 9079.4, 9096.4, 9112.7, 9129.4, 9146.2, 9163.1, 9179.7, 9196.1, 9213.3, 9229.6, 9246.4, 9263.2, 9279.7, 9296.6, 9312.8, 9329.7, 9346.3, 9363, 9379.7, 9396.5, 9413, 9429.6, 9446.4, 9463, 9479.3, 9496.2, 9512.9, 9529.5, 9546.2, 9562.9, 9579.7, 9596.1, 9612.8, 9629.6, 9646.2, 9663, 9679.6, 9696.1, 9712.8, 9729.5, 9746.1, 9763, 9779.7, 9796.7, 9813.1, 9829.6, 9846.1, 9863, 9879.7, 9896.2, 9913, 9929.8, 9946.4, 9963.1, 9979.5, 9996.1, 10012.8, 10029.4, 10046.3, 10062.8]","[0.7, 14.6, 16.5, 16.7, 16.9, 16.3, 17, 16.8, 16.3, 16.6, 17.1, 16.4, 16.7, 16.7, 16.6, 16.5, 16.7, 16.8, 16.6, 16.7, 16.7, 16.7, 16.5, 16.7, 16.8, 16.7, 16.5, 16.7, 16.8, 16.7, 16.6, 16.6, 16.7, 16.6, 16.9, 16.5, 16.8, 16.5, 16.8, 16.7, 16.4, 16.8, 16.8, 17, 16.2, 16.8, 16.5, 16.6, 16.7, 16.8, 16.5, 16.9, 16.5, 16.9, 16.5, 16.7, 16.6, 16.7, 16.7, 16.7, 16.6, 16.7, 16.6, 16.6, 16.9, 16.7, 16.4, 16.8, 16.6, 16.7, 16.4, 16.9, 16.6, 16.7, 16.6, 16.9, 16.6, 16.5, 16.7, 16.7, 16.8, 16.4, 16.8, 16.6, 16.7, 16.6, 16.8, 16.8, 16.7, 16.5, 16.7, 16.6, 16.7, 16.7, 16.6, 16.7, 16.7, 16.5, 16.7, 16.7, 17, 16.2, 17, 17, 16.3, 16.5, 16.8, 16.7, 16.6, 16.5, 16.9, 16.7, 16.6, 16.7, 16.8, 16.4, 16.8, 16.7, 16.8, 16.3, 16.9, 16.6, 16.4, 17, 16.6, 16.7, 16.4, 16.9, 16.6, 16.7, 16.7, 16.6, 16.7, 16.6, 16.7, 16.9, 16.6, 16.6, 16.5, 16.7, 16.7, 16.7, 16.6, 16.8, 16.6, 16.7, 16.6, 16.7, 16.7, 16.8, 16.5, 16.7, 16.5, 16.7, 17, 16.3, 16.8, 16.8, 16.3, 16.8, 16.7, 17, 16.4, 17.2, 16.2, 16.7, 16.6, 16.5, 16.6, 16.9, 16.6, 16.8, 16.7, 16.5, 16.6, 16.9, 16.6, 16.4, 16.8, 16.8, 16.5, 16.7, 16.8, 16.5, 16.7, 17.1, 16.3, 16.5, 17.1, 16.6, 16.5, 16.6, 16.7, 16.6, 16.8, 16.6, 16.8, 16.6, 16.6, 16.7, 16.6, 16.7, 16.7, 16.5, 16.7, 16.8, 16.6, 16.8, 16.5, 16.8, 16.6, 16.8, 16.6, 16.5, 16.6, 16.8, 16.5, 16.9, 16.5, 17, 16.7, 16.7, 16.8, 17.3, 15.6, 16.7, 16.8, 16.6, 16.5, 16.6, 16.8, 16.9, 16.8, 16.4, 16.9, 16.3, 16.7, 16.6, 16.9, 16.4, 16.6, 17, 16.3, 16.7, 16.8, 16.9, 16.6, 16.4, 17.2, 16.3, 16.8, 16.8, 16.5, 16.9, 16.2, 16.9, 16.6, 16.7, 16.7, 16.8, 16.5, 16.6, 16.8, 16.6, 16.3, 16.9, 16.7, 16.6, 16.7, 16.7, 16.8, 16.4, 16.7, 16.8, 16.6, 16.8, 16.6, 16.5, 16.7, 16.7, 16.6, 16.9, 16.7, 17, 16.4, 16.5, 16.5, 16.9, 16.7, 16.5, 16.8, 16.8, 16.6, 16.7, 16.4, 16.6, 16.7, 16.6, 16.9, 16.5]",60.0,60.0,60.0,4998.5,[],,,,,,,,,,,,,,,,,,,,,,,,,HRV,HRV_0233,2022-11-30 19:27:08
,wl-html-keyboard-response,2,25587,0.0-2.0-0.0,0.0,3.0,,,,,,,,14282.900000095367,0.0,0,,,,,,,,,,,,,,,,,,,,,,HRV,HRV_0233,2022-11-30 19:27:08
,wl-rdm,3,33199,0.0-3.0-0.0,0.0,4.0,,,,,,,[],,,,0.0,0.0,87.9,0.0,u,0.0,True,2043.3000001907349,123.0,60.0,40.0,False,,3000.0,[],"[768, 432]",ColorTask_Demo,,,,,HRV,HRV_0233,2022-11-30 19:27:08
,wl-rdm,4,37883,0.0-3.0-1.0,0.0,5.0,,,,,,,[],,,,0.0,0.0,87.9,1.0,i,1.0,True,586.5,36.0,60.0,40.0,False,,2000.0,[],"[768, 432]",ColorTask_Demo,,,,,HRV,HRV_0233,2022-11-30 19:27:08
,wl-html-keyboard-response,5,43515,0.0-3.0-2.0,0.0,6.0,,,,,,,,3627.5,0.0,1,,,,,,,,,,,,,,,,,,,,,,HRV,HRV_0233,2022-11-30 19:27:08
,wl-html-keyboard-response,6,50667,0.0-4.0-0.0,0.0,7.0,,,,,,,,5146.900000095367,0.0,0,,,,,,,,,,,,,,,,,,,,,,HRV,HRV_0233,2022-11-30 19:27:08
,wl-html-keyboard-response,7,144636,0.0-5.0-0.0,0.0,8.0,,,,,,,,91963.10000014305,0.0,0,,,,,,,,,,,,,,,,,,,,,,HRV,HRV_0233,2022-11-30 19:27:08
,wl-rdm,8,146966,0.0-6.0-0.0,0.0,9.0,,,,,,,[],,,,,,87.9,0.0,u,0.0,True,973.3000001907349,59.0,60.0,40.0,False,,270.6507255625305,[],"[768, 432]",ColorTask,1.0,1.0,,,HRV,HRV_0233,2022-11-30 19:27:08
,wl-rdm,9,149033,0.0-6.1-0.1,0.0,10.0,,,,,,,[],,,,,,87.9,0.0,u,0.0,True,720.0,44.0,60.0,40.0,False,,257.3981769195192,[],"[768, 432]",ColorTask,2.0,2.0,,,HRV,HRV_0233,2022-11-30 19:27:08
,wl-rdm,10,151116,0.0-6.2-0.2,0.0,11.0,,,,,,,[],,,,,,53.2,0.0,i,1.0,False,685.0,42.0,60.0,40.0,False,,307.90628866726064,[],"[768, 432]",ColorTask,1.0,3.0,,,HRV,HRV_0233,2022-11-30 19:27:08
,wl-rdm,11,153133,0.0-6.3-0.3,0.0,12.0,,,,,,,[],,,,,,56.4,1.0,u,0.0,False,665.5999999046326,40.0,60.0,40.0,False,,289.6928721575328,[],"[768, 432]",ColorTask,0.0,4.0,,,HRV,HRV_0233,2022-11-30 19:27:08
,wl-rdm,12,155033,0.0-6.4-0.4,0.0,13.0,,,,,,,[],,,,,,56.4,0.0,u,0.0,True,627.7999999523163,38.0,60.0,40.0,False,,212.09242544856303,[],"[768, 432]",ColorTask,1.0,5.0,,,HRV,HRV_0233,2022-11-30 19:27:08
,wl-rdm,13,157033,0.0-6.5-0.5,0.0,14.0,,,,,,,[],,,,,,53.2,1.0,i,1.0,True,686.2000000476837,42.0,60.0,40.0,False,,237.50745807044595,[],"[768, 432]",ColorTask,2.0,6.0,,,HRV,HRV_0233,2022-11-30 19:27:08
,wl-rdm,14,159033,0.0-6.6-0.6,0.0,15.0,,,,,,,[],,,,,,62.5,0.0,i,1.0,False,594.7000002861023,36.0,60.0,40.0,False,,345.1452935345989,[],"[768, 432]",ColorTask,1.0,7.0,,,HRV,HRV_0233,2022-11-30 19:27:08
,wl-rdm,15,161150,0.0-6.7-0.7,0.0,16.0,,,,,,,[],,,,,,50.0,0.0,u,0.0,True,815.2000000476837,49.0,60.0,40.0,False,,226.65350369458548,[],"[768, 432]",ColorTask,2.0,8.0,,,HRV,HRV_0233,2022-11-30 19:27:08
,wl-rdm,16,163400,0.0-6.8-0.8,0.0,17.0,,,,,,,[],,,,,,56.4,1.0,i,1.0,True,979.4000000953674,59.0,60.0,40.0,False,,210.7726443866821,[],"[768, 432]",ColorTask,3.0,9.0,,,HRV,HRV_0233,2022-11-30 19:27:08
,wl-rdm,17,165583,0.0-6.9-0.9,0.0,18.0,,,,,,,[],,,,,,62.5,1.0,i,1.0,True,730.7000000476837,44.0,60.0,40.0,False,,369.50299273785254,[],"[768, 432]",ColorTask,4.0,10.0,,,HRV,HRV_0233,2022-11-30 19:27:08
,wl-rdm,18,167666,0.0-6.10-0.10,0.0,19.0,,,,,,,[],,,,,,53.2,1.0,u,0.0,False,768.5,47.0,60.0,40.0,False,,236.69463468999305,[],"[768, 432]",ColorTask,3.0,11.0,,,HRV,HRV_0233,2022-11-30 19:27:08
,wl-rdm,19,169867,0.0-6.11-0.11,0.0,20.0,,,,,,,[],,,,,,62.5,1.0,i,1.0,True,735.7999999523163,45.0,60.0,40.0,False,,382.7918102755316,[],"[768, 432]",ColorTask,4.0,12.0,,,HRV,HRV_0233,2022-11-30 19:27:08
,wl-rdm,20,171733,0.0-6.12-0.12,0.0,21.0,,,,,,,[],,,,,,87.9,1.0,i,1.0,True,565.5,34.0,60.0,40.0,False,,234.84674842998888,[],"[768, 432]",ColorTask,5.0,13.0,,,HRV,HRV_0233,2022-11-30 19:27:08
,wl-rdm,21,173816,0.0-6.13-0.13,0.0,22.0,,,,,,,[],,,,,,53.2,1.0,u,0.0,False,653.2999999523163,40.0,60.0,40.0,False,,355.81466699786006,[],"[768, 432]",ColorTask,4.0,14.0,,,HRV,HRV_0233,2022-11-30 19:27:08
,wl-rdm,22,175933,0.0-6.14-0.14,0.0,23.0,,,,,,,[],,,,,,62.5,1.0,i,1.0,True,650.0,39.0,60.0,40.0,False,,391.6740713102705,[],"[768, 432]",ColorTask,5.0,15.0,,,HRV,HRV_0233,2022-11-30 19:27:08
,wl-rdm,23,178100,0.0-6.15-0.15,0.0,24.0,,,,,,,[],,,,,,87.9,1.0,u,0.0,False,851.3000001907349,52.0,60.0,40.0,False,,222.8983931258469,[],"[768, 432]",ColorTask,4.0,16.0,,,HRV,HRV_0233,2022-11-30 19:27:08
,wl-rdm,24,180616,0.0-6.16-0.16,0.0,25.0,,,,,,,[],,,,,,53.2,0.0,u,0.0,True,1153.7999999523163,70.0,60.0,40.0,False,,279.55580920342754,[],"[768, 432]",ColorTask,5.0,17.0,,,HRV,HRV_0233,2022-11-30 19:27:08
,wl-rdm,25,182716,0.0-6.17-0.17,0.0,26.0,,,,,,,[],,,,,,56.4,1.0,i,1.0,True,782.9000000953674,47.0,60.0,40.0,False,,255.15576930185813,[],"[768, 432]",ColorTask,6.0,18.0,,,HRV,HRV_0233,2022-11-30 19:27:08
,wl-rdm,26,185266,0.0-6.18-0.18,0.0,27.0,,,,,,,[],,,,,,62.5,1.0,u,0.0,False,1119.2000000476837,68.0,60.0,40.0,False,,361.8010253845777,[],"[768, 432]",ColorTask,5.0,19.0,,,HRV,HRV_0233,2022-11-30 19:27:08
,wl-rdm,27,187317,0.0-6.19-0.19,0.0,28.0,,,,,,,[],,,,,,73.6,0.0,u,0.0,True,757.8999998569489,46.0,60.0,40.0,False,,228.10606520316668,[],"[768, 432]",ColorTask,6.0,20.0,,,HRV,HRV_0233,2022-11-30 19:27:08
,wl-rdm,28,189833,0.0-6.20-0.20,0.0,29.0,,,,,,,[],,,,,,56.4,0.0,u,0.0,True,1194.7000000476837,72.0,60.0,40.0,False,,241.0159553080241,[],"[768, 432]",ColorTask,7.0,21.0,,,HRV,HRV_0233,2022-11-30 19:27:08
,wl-rdm,29,191834,0.0-6.21-0.21,0.0,30.0,,,,,,,[],,,,,,73.6,1.0,i,1.0,True,703.0999999046326,43.0,60.0,40.0,False,,223.8408792118731,[],"[768, 432]",ColorTask,8.0,22.0,,,HRV,HRV_0233,2022-11-30 19:27:08
,wl-rdm,30,194367,0.0-6.22-0.22,0.0,31.0,,,,,,,[],,,,,,56.4,1.0,i,1.0,True,1106.2000000476837,67.0,60.0,40.0,False,,333.6260993942568,[],"[768, 432]",ColorTask,9.0,23.0,,,HRV,HRV_0233,2022-11-30 19:27:08
,wl-rdm,31,196434,0.0-6.23-0.23,0.0,32.0,,,,,,,[],,,,,,87.9,0.0,u,0.0,True,677.9000000953674,41.0,60.0,40.0,False,,329.17909273022406,[],"[768, 432]",ColorTask,10.0,24.0,,,HRV,HRV_0233,2022-11-30 19:27:08
,wl-rdm,32,198450,0.0-6.24-0.24,0.0,33.0,,,,,,,[],,,,,,87.9,1.0,i,1.0,True,619.2999999523163,38.0,60.0,40.0,False,,311.6292421244599,[],"[768, 432]",ColorTask,11.0,25.0,,,HRV,HRV_0233,2022-11-30 19:27:08
,wl-rdm,33,200533,0.0-6.25-0.25,0.0,34.0,,,,,,,[],,,,,,62.5,0.0,u,0.0,True,689.9000000953674,42.0,60.0,40.0,False,,330.9005023751132,[],"[768, 432]",ColorTask,12.0,26.0,,,HRV,HRV_0233,2022-11-30 19:27:08
,wl-rdm,34,202500,0.0-6.26-0.26,0.0,35.0,,,,,,,[],,,,,,87.9,1.0,i,1.0,True,651.4000000953674,40.0,60.0,40.0,False,,229.60518032018922,[],"[768, 432]",ColorTask,13.0,27.0,,,HRV,HRV_0233,2022-11-30 19:27:08
,wl-rdm,35,204550,0.0-6.27-0.27,0.0,36.0,,,,,,,[],,,,,,50.0,0.0,u,0.0,True,639.7000000476837,39.0,60.0,40.0,False,,347.5526925119451,[],"[768, 432]",ColorTask,14.0,28.0,,,HRV,HRV_0233,2022-11-30 19:27:08
,wl-rdm,36,206567,0.0-6.28-0.28,0.0,37.0,,,,,,,[],,,,,,62.5,0.0,u,0.0,True,622.7000000476837,38.0,60.0,40.0,False,,303.02108661838014,[],"[768, 432]",ColorTask,15.0,29.0,,,HRV,HRV_0233,2022-11-30 19:27:08
,wl-rdm,37,208667,0.0-6.29-0.29,0.0,38.0,,,,,,,[],,,,,,50.0,1.0,u,0.0,False,826.5999999046326,50.0,60.0,40.0,False,,214.16961274556908,[],"[768, 432]",ColorTask,14.0,30.0,,,HRV,HRV_0233,2022-11-30 19:27:08
,wl-rdm,38,210934,0.0-6.30-0.30,0.0,39.0,,,,,,,[],,,,,,87.9,1.0,i,1.0,True,807.2000000476837,49.0,60.0,40.0,False,,382.1190786779137,[],"[768, 432]",ColorTask,15.0,31.0,,,HRV,HRV_0233,2022-11-30 19:27:08
,wl-rdm,39,213200,0.0-6.31-0.31,0.0,40.0,,,,,,,[],,,,,,62.5,1.0,i,1.0,True,837.4999997615814,51.0,60.0,40.0,False,,365.60541892292156,[],"[768, 432]",ColorTask,16.0,32.0,,,HRV,HRV_0233,2022-11-30 19:27:08
,wl-rdm,40,215067,0.0-6.32-0.32,0.0,41.0,,,,,,,[],,,,,,87.9,1.0,i,1.0,True,535.1000001430511,33.0,60.0,40.0,False,,253.55135197910516,[],"[768, 432]",ColorTask,17.0,33.0,,,HRV,HRV_0233,2022-11-30 19:27:08
,wl-rdm,41,216984,0.0-6.33-0.33,0.0,42.0,,,,,,,[],,,,,,73.6,0.0,u,0.0,True,629.7999999523163,38.0,60.0,40.0,False,,201.1842811724557,[],"[768, 432]",ColorTask,18.0,34.0,,,HRV,HRV_0233,2022-11-30 19:27:08
,wl-rdm,42,218900,0.0-6.34-0.34,0.0,43.0,,,,,,,[],,,,,,50.0,1.0,u,0.0,False,602.0,37.0,60.0,40.0,False,,229.31042589699842,[],"[768, 432]",ColorTask,17.0,35.0,,,HRV,HRV_0233,2022-11-30 19:27:08
,wl-rdm,43,220867,0.0-6.35-0.35,0.0,44.0,,,,,,,[],,,,,,73.6,0.0,u,0.0,True,602.2000000476837,37.0,60.0,40.0,False,,279.2113480035581,[],"[768, 432]",ColorTask,18.0,36.0,,,HRV,HRV_0233,2022-11-30 19:27:08
,wl-rdm,44,223234,0.0-6.36-0.36,0.0,45.0,,,,,,,[],,,,,,56.4,1.0,i,1.0,True,1003.1000001430511,61.0,60.0,40.0,False,,281.9681934477457,[],"[768, 432]",ColorTask,19.0,37.0,,,HRV,HRV_0233,2022-11-30 19:27:08
,wl-rdm,45,225634,0.0-6.37-0.37,0.0,46.0,,,,,,,[],,,,,,50.0,0.0,i,1.0,False,1119.6000001430511,68.0,60.0,40.0,False,,207.74596706212736,[],"[768, 432]",ColorTask,18.0,38.0,,,HRV,HRV_0233,2022-11-30 19:27:08
,wl-rdm,46,227784,0.0-6.38-0.38,0.0,47.0,,,,,,,[],,,,,,50.0,0.0,u,0.0,True,879.6000001430511,53.0,60.0,40.0,False,,201.38067330625998,[],"[768, 432]",ColorTask,19.0,39.0,,,HRV,HRV_0233,2022-11-30 19:27:08
,wl-rdm,47,229817,0.0-6.39-0.39,0.0,48.0,,,,,,,[],,,,,,73.6,1.0,i,1.0,True,745.1999998092651,45.0,60.0,40.0,False,,219.0525745506348,[],"[768, 432]",ColorTask,20.0,40.0,,,HRV,HRV_0233,2022-11-30 19:27:08
,wl-rdm,48,231917,0.0-6.40-0.40,0.0,49.0,,,,,,,[],,,,,,73.6,1.0,i,1.0,True,791.7000000476837,48.0,60.0,40.0,False,,227.82338387092167,[],"[768, 432]",ColorTask,21.0,41.0,,,HRV,HRV_0233,2022-11-30 19:27:08
,wl-rdm,49,234200,0.0-6.41-0.41,0.0,50.0,,,,,,,[],,,,,,62.5,1.0,i,1.0,True,920.7000000476837,56.0,60.0,40.0,False,,294.28893128499544,[],"[768, 432]",ColorTask,22.0,42.0,,,HRV,HRV_0233,2022-11-30 19:27:08
,wl-rdm,50,236450,0.0-6.42-0.42,0.0,51.0,,,,,,,[],,,,,,50.0,1.0,i,1.0,True,936.1000001430511,57.0,60.0,40.0,False,,228.26618122818144,[],"[768, 432]",ColorTask,23.0,43.0,,,HRV,HRV_0233,2022-11-30 19:27:08
,wl-rdm,51,238634,0.0-6.43-0.43,0.0,52.0,,,,,,,[],,,,,,53.2,0.0,u,0.0,True,911.1000001430511,55.0,60.0,40.0,False,,200.702967940557,[],"[768, 432]",ColorTask,24.0,44.0,,,HRV,HRV_0233,2022-11-30 19:27:08
,wl-rdm,52,240667,0.0-6.44-0.44,0.0,53.0,,,,,,,[],,,,,,73.6,1.0,i,1.0,True,693.9000000953674,42.0,60.0,40.0,False,,253.28962103241332,[],"[768, 432]",ColorTask,25.0,45.0,,,HRV,HRV_0233,2022-11-30 19:27:08
,wl-rdm,53,242867,0.0-6.45-0.45,0.0,54.0,,,,,,,[],,,,,,53.2,1.0,i,1.0,True,792.7000000476837,48.0,60.0,40.0,False,,344.7580570251357,[],"[768, 432]",ColorTask,26.0,46.0,,,HRV,HRV_0233,2022-11-30 19:27:08
,wl-rdm,54,245550,0.0-6.46-0.46,0.0,55.0,,,,,,,[],,,,,,56.4,0.0,u,0.0,True,1348.0,81.0,60.0,40.0,False,,277.7812007121613,[],"[768, 432]",ColorTask,27.0,47.0,,,HRV,HRV_0233,2022-11-30 19:27:08
,wl-rdm,55,247884,0.0-6.47-0.47,0.0,56.0,,,,,,,[],,,,,,62.5,0.0,i,1.0,False,1001.7000000476837,61.0,60.0,40.0,False,,254.4841937950127,[],"[768, 432]",ColorTask,26.0,48.0,,,HRV,HRV_0233,2022-11-30 19:27:08
,wl-rdm,56,249950,0.0-6.48-0.48,0.0,57.0,,,,,,,[],,,,,,73.6,0.0,u,0.0,True,706.9000000953674,43.0,60.0,40.0,False,,281.8730832530748,[],"[768, 432]",ColorTask,27.0,49.0,,,HRV,HRV_0233,2022-11-30 19:27:08
,wl-rdm,57,251867,0.0-6.49-0.49,0.0,58.0,,,,,,,[],,,,,,87.9,0.0,u,0.0,True,593.1000001430511,36.0,60.0,40.0,False,,265.3622665244005,[],"[768, 432]",ColorTask,28.0,50.0,,,HRV,HRV_0233,2022-11-30 19:27:08
,wl-rdm,58,253983,0.0-6.50-0.50,0.0,59.0,,,,,,,[],,,,,,50.0,0.0,i,1.0,False,804.7000000476837,49.0,60.0,40.0,False,,221.87992344751706,[],"[768, 432]",ColorTask,27.0,51.0,,,HRV,HRV_0233,2022-11-30 19:27:08
,wl-rdm,59,256150,0.0-6.51-0.51,0.0,60.0,,,,,,,[],,,,,,50.0,1.0,i,1.0,True,831.5,50.0,60.0,40.0,False,,255.4233445975715,[],"[768, 432]",ColorTask,28.0,52.0,,,HRV,HRV_0233,2022-11-30 19:27:08
,wl-rdm,60,258166,0.0-6.52-0.52,0.0,61.0,,,,,,,[],,,,,,50.0,0.0,u,0.0,True,688.6999998092651,42.0,60.0,40.0,False,,262.80370099483633,[],"[768, 432]",ColorTask,29.0,53.0,,,HRV,HRV_0233,2022-11-30 19:27:08
,wl-rdm,61,260083,0.0-6.53-0.53,0.0,62.0,,,,,,,[],,,,,,73.6,0.0,u,0.0,True,601.5,37.0,60.0,40.0,False,,217.49623431931246,[],"[768, 432]",ColorTask,30.0,54.0,,,HRV,HRV_0233,2022-11-30 19:27:08
,wl-rdm,62,262150,0.0-6.54-0.54,0.0,63.0,,,,,,,[],,,,,,50.0,0.0,i,1.0,False,698.5999999046326,42.0,60.0,40.0,False,,298.8671361876403,[],"[768, 432]",ColorTask,29.0,55.0,,,HRV,HRV_0233,2022-11-30 19:27:08
,wl-rdm,63,264416,0.0-6.55-0.55,0.0,64.0,,,,,,,[],,,,,,62.5,0.0,u,0.0,True,803.7000000476837,49.0,60.0,40.0,False,,377.1076139446417,[],"[768, 432]",ColorTask,30.0,56.0,,,HRV,HRV_0233,2022-11-30 19:27:08
,wl-rdm,64,266317,0.0-6.56-0.56,0.0,65.0,,,,,,,[],,,,,,73.6,0.0,u,0.0,True,608.1999998092651,37.0,60.0,40.0,False,,211.62398888132867,[],"[768, 432]",ColorTask,31.0,57.0,,,HRV,HRV_0233,2022-11-30 19:27:08
,wl-rdm,65,268517,0.0-6.57-0.57,0.0,66.0,,,,,,,[],,,,,,53.2,0.0,u,0.0,True,899.2999999523163,54.0,60.0,40.0,False,,240.29696364073737,[],"[768, 432]",ColorTask,32.0,58.0,,,HRV,HRV_0233,2022-11-30 19:27:08
,wl-rdm,66,270700,0.0-6.58-0.58,0.0,67.0,,,,,,,[],,,,,,73.6,1.0,i,1.0,True,808.3999998569489,49.0,60.0,40.0,False,,314.5110974872966,[],"[768, 432]",ColorTask,33.0,59.0,,,HRV,HRV_0233,2022-11-30 19:27:08
,wl-rdm,67,272817,0.0-6.59-0.59,0.0,68.0,,,,,,,[],,,,,,62.5,0.0,u,0.0,True,836.2999999523163,51.0,60.0,40.0,False,,207.620491486773,[],"[768, 432]",ColorTask,34.0,60.0,,,HRV,HRV_0233,2022-11-30 19:27:08
,wl-rdm,68,274750,0.0-6.60-0.60,0.0,69.0,,,,,,,[],,,,,,62.5,0.0,u,0.0,True,581.0,35.0,60.0,40.0,False,,298.9743619959498,[],"[768, 432]",ColorTask,35.0,61.0,,,HRV,HRV_0233,2022-11-30 19:27:08
,wl-rdm,69,277217,0.0-6.61-0.61,0.0,70.0,,,,,,,[],,,,,,50.0,1.0,i,1.0,True,1170.2999999523163,71.0,60.0,40.0,False,,211.4263903495291,[],"[768, 432]",ColorTask,36.0,62.0,,,HRV,HRV_0233,2022-11-30 19:27:08
,wl-rdm,70,279817,0.0-6.62-0.62,0.0,71.0,,,,,,,[],,,,,,50.0,1.0,i,1.0,True,1195.2000000476837,72.0,60.0,40.0,False,,338.0453212458608,[],"[768, 432]",ColorTask,37.0,63.0,,,HRV,HRV_0233,2022-11-30 19:27:08
,wl-rdm,71,281883,0.0-6.63-0.63,0.0,72.0,,,,,,,[],,,,,,87.9,0.0,u,0.0,True,601.7000000476837,37.0,60.0,40.0,False,,398.889465489115,[],"[768, 432]",ColorTask,38.0,64.0,,,HRV,HRV_0233,2022-11-30 19:27:08
,wl-rdm,72,283933,0.0-6.64-0.64,0.0,73.0,,,,,,,[],,,,,,53.2,1.0,u,0.0,False,748.3000001907349,45.0,60.0,40.0,False,,234.224682862519,[],"[768, 432]",ColorTask,37.0,65.0,,,HRV,HRV_0233,2022-11-30 19:27:08
,wl-rdm,73,286000,0.0-6.65-0.65,0.0,74.0,,,,,,,[],,,,,,53.2,0.0,u,0.0,True,712.1000001430511,43.0,60.0,40.0,False,,293.953128692766,[],"[768, 432]",ColorTask,38.0,66.0,,,HRV,HRV_0233,2022-11-30 19:27:08
,wl-rdm,74,288033,0.0-6.66-0.66,0.0,75.0,,,,,,,[],,,,,,53.2,0.0,u,0.0,True,669.2999999523163,41.0,60.0,40.0,False,,299.13089663303975,[],"[768, 432]",ColorTask,39.0,67.0,,,HRV,HRV_0233,2022-11-30 19:27:08
,wl-rdm,75,290017,0.0-6.67-0.67,0.0,76.0,,,,,,,[],,,,,,87.9,0.0,u,0.0,True,569.2999999523163,35.0,60.0,40.0,False,,333.80026522618385,[],"[768, 432]",ColorTask,40.0,68.0,,,HRV,HRV_0233,2022-11-30 19:27:08
,wl-rdm,76,292717,0.0-6.68-0.68,0.0,77.0,,,,,,,[],,,,,,53.2,0.0,u,0.0,True,1390.0999999046326,84.0,60.0,40.0,False,,237.77605334416725,[],"[768, 432]",ColorTask,41.0,69.0,,,HRV,HRV_0233,2022-11-30 19:27:08
,wl-rdm,77,297050,0.0-6.69-0.69,0.0,77.0,,,,,,,[],,,,,,56.4,1.0,,,,,179.0,60.0,40.0,True,RT_timeout ,264.2565065745181,[],"[768, 432]",ColorTask,40.0,70.0,,,HRV,HRV_0233,2022-11-30 19:27:08
,wl-rdm,78,298133,0.0-6.70-0.70,0.0,77.0,,,,,,,[],,,,,,87.9,1.0,i,,,51.39999985694885,0.0,60.0,40.0,True,too_early ,348.2924517469928,[],"[768, 432]",ColorTask,39.0,71.0,,,HRV,HRV_0233,2022-11-30 19:27:08
,wl-rdm,79,300600,0.0-6.71-0.71,0.0,78.0,,,,,,,[],,,,,,56.4,0.0,i,1.0,False,1171.4000000953674,71.0,60.0,40.0,False,,213.15873851164034,[],"[768, 432]",ColorTask,38.0,72.0,,,HRV,HRV_0233,2022-11-30 19:27:08
,wl-rdm,80,303200,0.0-6.72-0.72,0.0,79.0,,,,,,,[],,,,,,73.6,1.0,i,1.0,True,1220.8999998569489,74.0,60.0,40.0,False,,284.81755950493925,[],"[768, 432]",ColorTask,39.0,73.0,,,HRV,HRV_0233,2022-11-30 19:27:08
,wl-rdm,81,306383,0.0-6.73-0.73,0.0,80.0,,,,,,,[],,,,,,87.9,0.0,u,0.0,True,1821.0999999046326,110.0,60.0,40.0,False,,275.46008572380083,[],"[768, 432]",ColorTask,40.0,74.0,,,HRV,HRV_0233,2022-11-30 19:27:08
,wl-rdm,82,308517,0.0-6.74-0.74,0.0,81.0,,,,,,,[],,,,,,73.6,1.0,i,1.0,True,790.7999999523163,48.0,60.0,40.0,False,,264.89936449477767,[],"[768, 432]",ColorTask,41.0,75.0,,,HRV,HRV_0233,2022-11-30 19:27:08
,wl-rdm,83,310650,0.0-6.75-0.75,0.0,82.0,,,,,,,[],,,,,,50.0,1.0,i,1.0,True,743.2000000476837,45.0,60.0,40.0,False,,330.76959337908653,[],"[768, 432]",ColorTask,42.0,76.0,,,HRV,HRV_0233,2022-11-30 19:27:08
,wl-rdm,84,312683,0.0-6.76-0.76,0.0,83.0,,,,,,,[],,,,,,56.4,1.0,i,1.0,True,717.5,44.0,60.0,40.0,False,,217.77269969857343,[],"[768, 432]",ColorTask,43.0,77.0,,,HRV,HRV_0233,2022-11-30 19:27:08
,wl-rdm,85,314650,0.0-6.77-0.77,0.0,84.0,,,,,,,[],,,,,,50.0,1.0,i,1.0,True,676.7999999523163,41.0,60.0,40.0,False,,218.88664777669797,[],"[768, 432]",ColorTask,44.0,78.0,,,HRV,HRV_0233,2022-11-30 19:27:08
,wl-rdm,86,316716,0.0-6.78-0.78,0.0,85.0,,,,,,,[],,,,,,87.9,1.0,i,1.0,True,624.2999999523163,38.0,60.0,40.0,False,,350.42822215108686,[],"[768, 432]",ColorTask,45.0,79.0,,,HRV,HRV_0233,2022-11-30 19:27:08
,wl-rdm,87,318716,0.0-6.79-0.79,0.0,86.0,,,,,,,[],,,,,,87.9,0.0,u,0.0,True,665.7000000476837,40.0,60.0,40.0,False,,271.23066119500015,[],"[768, 432]",ColorTask,46.0,80.0,,,HRV,HRV_0233,2022-11-30 19:27:08
,wl-rdm,88,320666,0.0-6.80-0.80,0.0,87.0,,,,,,,[],,,,,,87.9,0.0,u,0.0,True,535.7999999523163,33.0,60.0,40.0,False,,330.0652418072805,[],"[768, 432]",ColorTask,47.0,81.0,,,HRV,HRV_0233,2022-11-30 19:27:08
,wl-rdm,89,322666,0.0-6.81-0.81,0.0,88.0,,,,,,,[],,,,,,50.0,0.0,i,1.0,False,675.4000000953674,41.0,60.0,40.0,False,,253.58842927084373,[],"[768, 432]",ColorTask,46.0,82.0,,,HRV,HRV_0233,2022-11-30 19:27:08
,wl-rdm,90,325200,0.0-6.82-0.82,0.0,89.0,,,,,,,[],,,,,,62.5,1.0,i,1.0,True,1087.0,66.0,60.0,40.0,False,,381.7798210614195,[],"[768, 432]",ColorTask,47.0,83.0,,,HRV,HRV_0233,2022-11-30 19:27:08
,wl-rdm,91,327733,0.0-6.83-0.83,0.0,90.0,,,,,,,[],,,,,,73.6,1.0,i,1.0,True,1263.9000000953674,76.0,60.0,40.0,False,,213.26311348923485,[],"[768, 432]",ColorTask,48.0,84.0,,,HRV,HRV_0233,2022-11-30 19:27:08
,wl-rdm,92,329633,0.0-6.84-0.84,0.0,91.0,,,,,,,[],,,,,,56.4,1.0,i,1.0,True,535.7999999523163,33.0,60.0,40.0,False,,293.84333325222025,[],"[768, 432]",ColorTask,49.0,85.0,,,HRV,HRV_0233,2022-11-30 19:27:08
,wl-rdm,93,331983,0.0-6.85-0.85,0.0,92.0,,,,,,,[],,,,,,53.2,1.0,u,0.0,False,995.5999999046326,60.0,60.0,40.0,False,,291.40548712214377,[],"[768, 432]",ColorTask,48.0,86.0,,,HRV,HRV_0233,2022-11-30 19:27:08
,wl-rdm,94,334016,0.0-6.86-0.86,0.0,93.0,,,,,,,[],,,,,,53.2,1.0,i,1.0,True,620.0999999046326,38.0,60.0,40.0,False,,328.04073225429715,[],"[768, 432]",ColorTask,49.0,87.0,,,HRV,HRV_0233,2022-11-30 19:27:08
,wl-rdm,95,337816,0.0-6.87-0.87,0.0,94.0,,,,,,,[],,,,,,56.4,0.0,i,1.0,False,2469.7999999523163,149.0,60.0,40.0,False,,251.51878174877277,[],"[768, 432]",ColorTask,48.0,88.0,,,HRV,HRV_0233,2022-11-30 19:27:08
,wl-rdm,96,340533,0.0-6.88-0.88,0.0,95.0,,,,,,,[],,,,,,53.2,1.0,u,0.0,False,1348.7000000476837,81.0,60.0,40.0,False,,313.6267294135902,[],"[768, 432]",ColorTask,47.0,89.0,,,HRV,HRV_0233,2022-11-30 19:27:08
,wl-rdm,97,344616,0.0-6.89-0.89,0.0,96.0,,,,,,,[],,,,,,53.2,0.0,u,0.0,True,2786.7999999523163,168.0,60.0,40.0,False,,201.21347268965906,[],"[768, 432]",ColorTask,48.0,90.0,,,HRV,HRV_0233,2022-11-30 19:27:08
,wl-rdm,98,346633,0.0-6.90-0.90,0.0,97.0,,,,,,,[],,,,,,56.4,1.0,i,1.0,True,685.8000001907349,42.0,60.0,40.0,False,,262.48424714063077,[],"[768, 432]",ColorTask,49.0,91.0,,,HRV,HRV_0233,2022-11-30 19:27:08
,wl-rdm,99,350216,0.0-6.91-0.91,0.0,98.0,,,,,,,[],,,,,,56.4,1.0,i,1.0,True,2170.2999999523163,131.0,60.0,40.0,False,,332.0220420594285,[],"[768, 432]",ColorTask,50.0,92.0,,,HRV,HRV_0233,2022-11-30 19:27:08
,wl-rdm,100,352283,0.0-6.92-0.92,0.0,99.0,,,,,,,[],,,,,,56.4,0.0,i,1.0,False,652.6000001430511,40.0,60.0,40.0,False,,323.8889394843109,[],"[768, 432]",ColorTask,49.0,93.0,,,HRV,HRV_0233,2022-11-30 19:27:08
,wl-rdm,101,354766,0.0-6.93-0.93,0.0,100.0,,,,,,,[],,,,,,73.6,0.0,u,0.0,True,1146.7000000476837,69.0,60.0,40.0,False,,256.3971496558899,[],"[768, 432]",ColorTask,50.0,94.0,,,HRV,HRV_0233,2022-11-30 19:27:08
,wl-rdm,102,356583,0.0-6.94-0.94,0.0,101.0,,,,,,,[],,,,,,87.9,1.0,i,1.0,True,537.2999999523163,33.0,60.0,40.0,False,,201.04109823719736,[],"[768, 432]",ColorTask,51.0,95.0,,,HRV,HRV_0233,2022-11-30 19:27:08
,wl-rdm,103,358566,0.0-6.95-0.95,0.0,102.0,,,,,,,[],,,,,,62.5,1.0,i,1.0,True,588.0,36.0,60.0,40.0,False,,326.87607964864367,[],"[768, 432]",ColorTask,52.0,96.0,,,HRV,HRV_0233,2022-11-30 19:27:08
,wl-rdm,104,360517,0.0-6.96-0.96,0.0,103.0,,,,,,,[],,,,,,62.5,0.0,i,1.0,False,598.7999999523163,36.0,60.0,40.0,False,,288.9483601669517,[],"[768, 432]",ColorTask,51.0,97.0,,,HRV,HRV_0233,2022-11-30 19:27:08
,wl-rdm,105,362499,0.0-6.97-0.97,0.0,104.0,,,,,,,[],,,,,,53.2,0.0,u,0.0,True,649.0,39.0,60.0,40.0,False,,281.35544618396443,[],"[768, 432]",ColorTask,52.0,98.0,,,HRV,HRV_0233,2022-11-30 19:27:08
,wl-rdm,106,364300,0.0-6.98-0.98,0.0,105.0,,,,,,,[],,,,,,56.4,0.0,u,0.0,True,524.5,32.0,60.0,40.0,False,,205.13215946053532,[],"[768, 432]",ColorTask,53.0,99.0,,,HRV,HRV_0233,2022-11-30 19:27:08
,wl-rdm,107,366300,0.0-6.99-0.99,0.0,106.0,,,,,,,[],,,,,,73.6,1.0,u,0.0,False,634.4000000953674,39.0,60.0,40.0,False,,266.9210042142638,[],"[768, 432]",ColorTask,52.0,100.0,,,HRV,HRV_0233,2022-11-30 19:27:08
,wl-rdm,108,368283,0.0-6.100-0.100,0.0,107.0,,,,,,,[],,,,,,56.4,0.0,i,1.0,False,542.3000001907349,33.0,60.0,40.0,False,,354.31790289748824,[],"[768, 432]",ColorTask,51.0,101.0,,,HRV,HRV_0233,2022-11-30 19:27:08
,wl-rdm,109,370250,0.0-6.101-0.101,0.0,108.0,,,,,,,[],,,,,,50.0,0.0,i,1.0,False,536.2999999523163,33.0,60.0,40.0,False,,340.14797875078193,[],"[768, 432]",ColorTask,50.0,102.0,,,HRV,HRV_0233,2022-11-30 19:27:08
,wl-rdm,110,372250,0.0-6.102-0.102,0.0,109.0,,,,,,,[],,,,,,73.6,0.0,u,0.0,True,593.1000001430511,36.0,60.0,40.0,False,,335.56031591547446,[],"[768, 432]",ColorTask,51.0,103.0,,,HRV,HRV_0233,2022-11-30 19:27:08
,wl-rdm,111,374200,0.0-6.103-0.103,0.0,110.0,,,,,,,[],,,,,,73.6,0.0,u,0.0,True,662.0999999046326,40.0,60.0,40.0,False,,224.53041346160498,[],"[768, 432]",ColorTask,52.0,104.0,,,HRV,HRV_0233,2022-11-30 19:27:08
,wl-rdm,112,376500,0.0-6.104-0.104,0.0,111.0,,,,,,,[],,,,,,62.5,1.0,i,1.0,True,999.9000000953674,60.0,60.0,40.0,False,,217.93665446987166,[],"[768, 432]",ColorTask,53.0,105.0,,,HRV,HRV_0233,2022-11-30 19:27:08
,wl-rdm,113,378567,0.0-6.105-0.105,0.0,112.0,,,,,,,[],,,,,,62.5,0.0,i,1.0,False,755.2999999523163,46.0,60.0,40.0,False,,217.46329554179655,[],"[768, 432]",ColorTask,52.0,106.0,,,HRV,HRV_0233,2022-11-30 19:27:08
,wl-rdm,114,380583,0.0-6.106-0.106,0.0,113.0,,,,,,,[],,,,,,56.4,0.0,u,0.0,True,654.0999999046326,40.0,60.0,40.0,False,,268.25521352253736,[],"[768, 432]",ColorTask,53.0,107.0,,,HRV,HRV_0233,2022-11-30 19:27:08
,wl-rdm,115,382467,0.0-6.107-0.107,0.0,114.0,,,,,,,[],,,,,,53.2,1.0,u,0.0,False,568.0,35.0,60.0,40.0,False,,235.12986765274758,[],"[768, 432]",ColorTask,52.0,108.0,,,HRV,HRV_0233,2022-11-30 19:27:08
,wl-rdm,116,384383,0.0-6.108-0.108,0.0,115.0,,,,,,,[],,,,,,87.9,1.0,i,1.0,True,621.4000000953674,38.0,60.0,40.0,False,,215.62160410210478,[],"[768, 432]",ColorTask,53.0,109.0,,,HRV,HRV_0233,2022-11-30 19:27:08
,wl-rdm,117,386800,0.0-6.109-0.109,0.0,116.0,,,,,,,[],,,,,,50.0,1.0,i,1.0,True,1111.7000000476837,67.0,60.0,40.0,False,,240.748491500225,[],"[768, 432]",ColorTask,54.0,110.0,,,HRV,HRV_0233,2022-11-30 19:27:08
,wl-html-keyboard-response,118,517738,0.0-7.0-0.0,1.0,117.0,,,,,,,,128933.20000004768,1.0,0,,,,,,,,,,,,,,,,,,,,,,HRV,HRV_0233,2022-11-30 19:27:08
,wl-rdm,119,520150,0.0-8.0-0.0,1.0,118.0,,,,,,,[],,,,,,56.4,1.0,i,1.0,True,963.6000001430511,58.0,60.0,40.0,False,,387.8690809546599,[],"[768, 432]",ColorTask,55.0,1.0,,,HRV,HRV_0233,2022-11-30 19:27:08
,wl-rdm,120,522267,0.0-8.1-0.1,1.0,119.0,,,,,,,[],,,,,,56.4,0.0,u,0.0,True,833.7999999523163,51.0,60.0,40.0,False,,204.68034728776777,[],"[768, 432]",ColorTask,56.0,2.0,,,HRV,HRV_0233,2022-11-30 19:27:08
,wl-rdm,121,524300,0.0-8.2-0.2,1.0,120.0,,,,,,,[],,,,,,53.2,1.0,i,1.0,True,656.6000001430511,40.0,60.0,40.0,False,,311.5806413135875,[],"[768, 432]",ColorTask,57.0,3.0,,,HRV,HRV_0233,2022-11-30 19:27:08
,wl-rdm,122,526417,0.0-8.3-0.3,1.0,121.0,,,,,,,[],,,,,,87.9,1.0,i,1.0,True,702.6999998092651,43.0,60.0,40.0,False,,334.99381738108434,[],"[768, 432]",ColorTask,58.0,4.0,,,HRV,HRV_0233,2022-11-30 19:27:08
,wl-rdm,123,528567,0.0-8.4-0.4,1.0,122.0,,,,,,,[],,,,,,73.6,1.0,i,1.0,True,688.1999998092651,42.0,60.0,40.0,False,,382.2428280345147,[],"[768, 432]",ColorTask,59.0,5.0,,,HRV,HRV_0233,2022-11-30 19:27:08
,wl-rdm,124,530784,0.0-8.5-0.5,1.0,123.0,,,,,,,[],,,,,,50.0,1.0,i,1.0,True,786.9000000953674,48.0,60.0,40.0,False,,350.10887877226554,[],"[768, 432]",ColorTask,60.0,6.0,,,HRV,HRV_0233,2022-11-30 19:27:08
,wl-rdm,125,533000,0.0-8.6-0.6,1.0,124.0,,,,,,,[],,,,,,62.5,1.0,i,1.0,True,836.1000001430511,51.0,60.0,40.0,False,,311.2604086927412,[],"[768, 432]",ColorTask,61.0,7.0,,,HRV,HRV_0233,2022-11-30 19:27:08
,wl-rdm,126,535034,0.0-8.7-0.7,1.0,125.0,,,,,,,[],,,,,,62.5,1.0,i,1.0,True,709.9000000953674,43.0,60.0,40.0,False,,251.35195923274807,[],"[768, 432]",ColorTask,62.0,8.0,,,HRV,HRV_0233,2022-11-30 19:27:08
,wl-rdm,127,537383,0.0-8.8-0.8,1.0,126.0,,,,,,,[],,,,,,50.0,0.0,u,0.0,True,1028.5,62.0,60.0,40.0,False,,264.6564624548529,[],"[768, 432]",ColorTask,63.0,9.0,,,HRV,HRV_0233,2022-11-30 19:27:08
,wl-rdm,128,539800,0.0-8.9-0.9,1.0,127.0,,,,,,,[],,,,,,50.0,0.0,i,1.0,False,994.3999998569489,60.0,60.0,40.0,False,,360.47567959955336,[],"[768, 432]",ColorTask,62.0,10.0,,,HRV,HRV_0233,2022-11-30 19:27:08
,wl-rdm,129,541684,0.0-8.10-0.10,1.0,128.0,,,,,,,[],,,,,,73.6,1.0,i,1.0,True,608.3000001907349,37.0,60.0,40.0,False,,213.65623896128102,[],"[768, 432]",ColorTask,63.0,11.0,,,HRV,HRV_0233,2022-11-30 19:27:08
,wl-rdm,130,543883,0.0-8.11-0.11,1.0,129.0,,,,,,,[],,,,,,53.2,1.0,u,0.0,False,807.5,49.0,60.0,40.0,False,,323.38005000189867,[],"[768, 432]",ColorTask,62.0,12.0,,,HRV,HRV_0233,2022-11-30 19:27:08
,wl-rdm,131,546084,0.0-8.12-0.12,1.0,130.0,,,,,,,[],,,,,,56.4,0.0,u,0.0,True,865.8999998569489,52.0,60.0,40.0,False,,276.9005166742521,[],"[768, 432]",ColorTask,63.0,13.0,,,HRV,HRV_0233,2022-11-30 19:27:08
,wl-rdm,132,548067,0.0-8.13-0.13,1.0,131.0,,,,,,,[],,,,,,53.2,1.0,i,1.0,True,641.5,39.0,60.0,40.0,False,,279.38527805815045,[],"[768, 432]",ColorTask,64.0,14.0,,,HRV,HRV_0233,2022-11-30 19:27:08
,wl-rdm,133,550117,0.0-8.14-0.14,1.0,132.0,,,,,,,[],,,,,,62.5,1.0,i,1.0,True,772.2000000476837,47.0,60.0,40.0,False,,208.6838195833318,[],"[768, 432]",ColorTask,65.0,15.0,,,HRV,HRV_0233,2022-11-30 19:27:08
,wl-rdm,134,552067,0.0-8.15-0.15,1.0,133.0,,,,,,,[],,,,,,87.9,1.0,i,1.0,True,615.9000000953674,37.0,60.0,40.0,False,,278.9590243782992,[],"[768, 432]",ColorTask,66.0,16.0,,,HRV,HRV_0233,2022-11-30 19:27:08
,wl-rdm,135,554217,0.0-8.16-0.16,1.0,134.0,,,,,,,[],,,,,,73.6,0.0,u,0.0,True,693.5999999046326,42.0,60.0,40.0,False,,387.9795951420132,[],"[768, 432]",ColorTask,67.0,17.0,,,HRV,HRV_0233,2022-11-30 19:27:08
,wl-rdm,136,556334,0.0-8.17-0.17,1.0,135.0,,,,,,,[],,,,,,50.0,0.0,u,0.0,True,821.7000000476837,50.0,60.0,40.0,False,,224.52612049168536,[],"[768, 432]",ColorTask,68.0,18.0,,,HRV,HRV_0233,2022-11-30 19:27:08
,wl-rdm,137,558317,0.0-8.18-0.18,1.0,136.0,,,,,,,[],,,,,,87.9,1.0,i,1.0,True,665.2999999523163,40.0,60.0,40.0,False,,261.07306031012234,[],"[768, 432]",ColorTask,69.0,19.0,,,HRV,HRV_0233,2022-11-30 19:27:08
,wl-rdm,138,560651,0.0-8.19-0.19,1.0,137.0,,,,,,,[],,,,,,50.0,0.0,u,0.0,True,918.9000000953674,56.0,60.0,40.0,False,,317.542347107523,[],"[768, 432]",ColorTask,70.0,20.0,,,HRV,HRV_0233,2022-11-30 19:27:08
,wl-rdm,139,562734,0.0-8.20-0.20,1.0,138.0,,,,,,,[],,,,,,56.4,1.0,u,0.0,False,713.9000000953674,43.0,60.0,40.0,False,,309.03309483839905,[],"[768, 432]",ColorTask,69.0,21.0,,,HRV,HRV_0233,2022-11-30 19:27:08
,wl-rdm,140,564801,0.0-8.21-0.21,1.0,139.0,,,,,,,[],,,,,,62.5,0.0,u,0.0,True,611.1000001430511,37.0,60.0,40.0,False,,395.7258227002094,[],"[768, 432]",ColorTask,70.0,22.0,,,HRV,HRV_0233,2022-11-30 19:27:08
,wl-rdm,141,567134,0.0-8.22-0.22,1.0,140.0,,,,,,,[],,,,,,56.4,1.0,u,0.0,False,1055.2000000476837,64.0,60.0,40.0,False,,211.8958732944721,[],"[768, 432]",ColorTask,69.0,23.0,,,HRV,HRV_0233,2022-11-30 19:27:08
,wl-rdm,142,569151,0.0-8.23-0.23,1.0,141.0,,,,,,,[],,,,,,73.6,0.0,u,0.0,True,613.0,37.0,60.0,40.0,False,,346.97077419287325,[],"[768, 432]",ColorTask,70.0,24.0,,,HRV,HRV_0233,2022-11-30 19:27:08
,wl-rdm,143,571151,0.0-8.24-0.24,1.0,142.0,,,,,,,[],,,,,,62.5,1.0,i,1.0,True,621.0,38.0,60.0,40.0,False,,316.0152071127112,[],"[768, 432]",ColorTask,71.0,25.0,,,HRV,HRV_0233,2022-11-30 19:27:08
,wl-rdm,144,573501,0.0-8.25-0.25,1.0,143.0,,,,,,,[],,,,,,50.0,0.0,u,0.0,True,1064.7000000476837,64.0,60.0,40.0,False,,231.54956209298604,[],"[768, 432]",ColorTask,72.0,26.0,,,HRV,HRV_0233,2022-11-30 19:27:08
,wl-rdm,145,576051,0.0-8.26-0.26,1.0,144.0,,,,,,,[],,,,,,50.0,1.0,u,0.0,False,1234.5999999046326,75.0,60.0,40.0,False,,235.72057844374078,[],"[768, 432]",ColorTask,71.0,27.0,,,HRV,HRV_0233,2022-11-30 19:27:08
,wl-rdm,146,577967,0.0-8.27-0.27,1.0,145.0,,,,,,,[],,,,,,56.4,0.0,i,1.0,False,587.3999998569489,36.0,60.0,40.0,False,,259.14547541631805,[],"[768, 432]",ColorTask,70.0,28.0,,,HRV,HRV_0233,2022-11-30 19:27:08
,wl-rdm,147,579984,0.0-8.28-0.28,1.0,146.0,,,,,,,[],,,,,,53.2,0.0,u,0.0,True,745.0,45.0,60.0,40.0,False,,200.69193967507303,[],"[768, 432]",ColorTask,71.0,29.0,,,HRV,HRV_0233,2022-11-30 19:27:08
,wl-rdm,148,582351,0.0-8.29-0.29,1.0,147.0,,,,,,,[],,,,,,50.0,0.0,u,0.0,True,1096.6999998092651,66.0,60.0,40.0,False,,214.17232939044652,[],"[768, 432]",ColorTask,72.0,30.0,,,HRV,HRV_0233,2022-11-30 19:27:08
,wl-rdm,149,584567,0.0-8.30-0.30,1.0,148.0,,,,,,,[],,,,,,73.6,0.0,u,0.0,True,737.9000000953674,45.0,60.0,40.0,False,,388.2387948557962,[],"[768, 432]",ColorTask,73.0,31.0,,,HRV,HRV_0233,2022-11-30 19:27:08
,wl-rdm,150,586884,0.0-8.31-0.31,1.0,149.0,,,,,,,[],,,,,,56.4,0.0,u,0.0,True,1008.1999998092651,61.0,60.0,40.0,False,,229.5391267238016,[],"[768, 432]",ColorTask,74.0,32.0,,,HRV,HRV_0233,2022-11-30 19:27:08
,wl-rdm,151,588984,0.0-8.32-0.32,1.0,150.0,,,,,,,[],,,,,,56.4,1.0,u,0.0,False,786.2999999523163,48.0,60.0,40.0,False,,245.8942479037584,[],"[768, 432]",ColorTask,73.0,33.0,,,HRV,HRV_0233,2022-11-30 19:27:08
,wl-rdm,152,591117,0.0-8.33-0.33,1.0,151.0,,,,,,,[],,,,,,73.6,0.0,u,0.0,True,772.4000000953674,47.0,60.0,40.0,False,,287.2025049980077,[],"[768, 432]",ColorTask,74.0,34.0,,,HRV,HRV_0233,2022-11-30 19:27:08
,wl-rdm,153,593301,0.0-8.34-0.34,1.0,152.0,,,,,,,[],,,,,,87.9,1.0,i,1.0,True,765.5,46.0,60.0,40.0,False,,345.7066463321203,[],"[768, 432]",ColorTask,75.0,35.0,,,HRV,HRV_0233,2022-11-30 19:27:08
,wl-rdm,154,595501,0.0-8.35-0.35,1.0,153.0,,,,,,,[],,,,,,50.0,1.0,i,1.0,True,865.6000001430511,52.0,60.0,40.0,False,,250.77393922158694,[],"[768, 432]",ColorTask,76.0,36.0,,,HRV,HRV_0233,2022-11-30 19:27:08
,wl-rdm,155,597634,0.0-8.36-0.36,1.0,154.0,,,,,,,[],,,,,,73.6,1.0,i,1.0,True,801.8000001907349,49.0,60.0,40.0,False,,259.11102272319516,[],"[768, 432]",ColorTask,77.0,37.0,,,HRV,HRV_0233,2022-11-30 19:27:08
,wl-rdm,156,599734,0.0-8.37-0.37,1.0,155.0,,,,,,,[],,,,,,73.6,0.0,u,0.0,True,746.7999999523163,45.0,60.0,40.0,False,,295.96506369217207,[],"[768, 432]",ColorTask,78.0,38.0,,,HRV,HRV_0233,2022-11-30 19:27:08
,wl-rdm,157,601834,0.0-8.38-0.38,1.0,156.0,,,,,,,[],,,,,,53.2,0.0,u,0.0,True,768.4000000953674,47.0,60.0,40.0,False,,261.07834327956067,[],"[768, 432]",ColorTask,79.0,39.0,,,HRV,HRV_0233,2022-11-30 19:27:08
,wl-rdm,158,604018,0.0-8.39-0.39,1.0,157.0,,,,,,,[],,,,,,62.5,0.0,u,0.0,True,843.5,51.0,60.0,40.0,False,,268.5696053900455,[],"[768, 432]",ColorTask,80.0,40.0,,,HRV,HRV_0233,2022-11-30 19:27:08
,wl-rdm,159,606068,0.0-8.40-0.40,1.0,158.0,,,,,,,[],,,,,,62.5,0.0,u,0.0,True,707.5,43.0,60.0,40.0,False,,279.9551207887814,[],"[768, 432]",ColorTask,81.0,41.0,,,HRV,HRV_0233,2022-11-30 19:27:08
,wl-rdm,160,608434,0.0-8.41-0.41,1.0,159.0,,,,,,,[],,,,,,50.0,1.0,u,0.0,False,935.6000001430511,57.0,60.0,40.0,False,,349.0903527535346,[],"[768, 432]",ColorTask,80.0,42.0,,,HRV,HRV_0233,2022-11-30 19:27:08
,wl-rdm,161,610384,0.0-8.42-0.42,1.0,160.0,,,,,,,[],,,,,,50.0,1.0,i,1.0,True,611.2999999523163,37.0,60.0,40.0,False,,269.97206783752546,[],"[768, 432]",ColorTask,81.0,43.0,,,HRV,HRV_0233,2022-11-30 19:27:08
,wl-rdm,162,612517,0.0-8.43-0.43,1.0,161.0,,,,,,,[],,,,,,87.9,0.0,u,0.0,True,657.2000000476837,40.0,60.0,40.0,False,,383.9152981915083,[],"[768, 432]",ColorTask,82.0,44.0,,,HRV,HRV_0233,2022-11-30 19:27:08
,wl-rdm,163,614550,0.0-8.44-0.44,1.0,162.0,,,,,,,[],,,,,,87.9,0.0,u,0.0,True,605.2000002861023,37.0,60.0,40.0,False,,338.91623997624595,[],"[768, 432]",ColorTask,83.0,45.0,,,HRV,HRV_0233,2022-11-30 19:27:08
,wl-rdm,164,616601,0.0-8.45-0.45,1.0,163.0,,,,,,,[],,,,,,62.5,0.0,u,0.0,True,769.0999999046326,47.0,60.0,40.0,False,,203.8878469006599,[],"[768, 432]",ColorTask,84.0,46.0,,,HRV,HRV_0233,2022-11-30 19:27:08
,wl-rdm,165,618734,0.0-8.46-0.46,1.0,164.0,,,,,,,[],,,,,,62.5,1.0,i,1.0,True,754.7999999523163,46.0,60.0,40.0,False,,311.71791977607114,[],"[768, 432]",ColorTask,85.0,47.0,,,HRV,HRV_0233,2022-11-30 19:27:08
,wl-rdm,166,620767,0.0-8.47-0.47,1.0,165.0,,,,,,,[],,,,,,53.2,0.0,u,0.0,True,645.2000000476837,39.0,60.0,40.0,False,,316.97217468930455,[],"[768, 432]",ColorTask,86.0,48.0,,,HRV,HRV_0233,2022-11-30 19:27:08
,wl-rdm,167,622701,0.0-8.48-0.48,1.0,166.0,,,,,,,[],,,,,,87.9,0.0,u,0.0,True,581.9999997615814,35.0,60.0,40.0,False,,293.8624431440469,[],"[768, 432]",ColorTask,87.0,49.0,,,HRV,HRV_0233,2022-11-30 19:27:08
,wl-rdm,168,625051,0.0-8.49-0.49,1.0,167.0,,,,,,,[],,,,,,62.5,0.0,u,0.0,True,958.7000000476837,58.0,60.0,40.0,False,,322.97519621518256,[],"[768, 432]",ColorTask,88.0,50.0,,,HRV,HRV_0233,2022-11-30 19:27:08
,wl-rdm,169,626867,0.0-8.50-0.50,1.0,168.0,,,,,,,[],,,,,,73.6,0.0,u,0.0,True,523.7999999523163,32.0,60.0,40.0,False,,227.26429104117227,[],"[768, 432]",ColorTask,89.0,51.0,,,HRV,HRV_0233,2022-11-30 19:27:08
,wl-rdm,170,628884,0.0-8.51-0.51,1.0,169.0,,,,,,,[],,,,,,73.6,1.0,i,1.0,True,623.9000000953674,38.0,60.0,40.0,False,,322.6577721196636,[],"[768, 432]",ColorTask,90.0,52.0,,,HRV,HRV_0233,2022-11-30 19:27:08
,wl-rdm,171,631434,0.0-8.52-0.52,1.0,170.0,,,,,,,[],,,,,,87.9,1.0,i,1.0,True,1226.5,74.0,60.0,40.0,False,,261.48686627320217,[],"[768, 432]",ColorTask,91.0,53.0,,,HRV,HRV_0233,2022-11-30 19:27:08
,wl-rdm,172,633467,0.0-8.53-0.53,1.0,171.0,,,,,,,[],,,,,,87.9,0.0,u,0.0,True,608.5999999046326,37.0,60.0,40.0,False,,338.9189967070695,[],"[768, 432]",ColorTask,92.0,54.0,,,HRV,HRV_0233,2022-11-30 19:27:08
,wl-rdm,173,635584,0.0-8.54-0.54,1.0,172.0,,,,,,,[],,,,,,73.6,1.0,i,1.0,True,719.5,44.0,60.0,40.0,False,,322.67814114212973,[],"[768, 432]",ColorTask,93.0,55.0,,,HRV,HRV_0233,2022-11-30 19:27:08
,wl-rdm,174,637867,0.0-8.55-0.55,1.0,173.0,,,,,,,[],,,,,,53.2,0.0,i,1.0,False,940.9000000953674,57.0,60.0,40.0,False,,272.713669863428,[],"[768, 432]",ColorTask,92.0,56.0,,,HRV,HRV_0233,2022-11-30 19:27:08
,wl-rdm,175,639851,0.0-8.56-0.56,1.0,174.0,,,,,,,[],,,,,,87.9,0.0,u,0.0,True,691.6000001430511,42.0,60.0,40.0,False,,223.36956929369464,[],"[768, 432]",ColorTask,93.0,57.0,,,HRV,HRV_0233,2022-11-30 19:27:08
,wl-rdm,176,642034,0.0-8.57-0.57,1.0,175.0,,,,,,,[],,,,,,73.6,1.0,i,1.0,True,818.1000001430511,50.0,60.0,40.0,False,,287.70225956362765,[],"[768, 432]",ColorTask,94.0,58.0,,,HRV,HRV_0233,2022-11-30 19:27:08
,wl-rdm,177,644067,0.0-8.58-0.58,1.0,176.0,,,,,,,[],,,,,,56.4,1.0,u,0.0,False,657.9000000953674,40.0,60.0,40.0,False,,302.3158607458054,[],"[768, 432]",ColorTask,93.0,59.0,,,HRV,HRV_0233,2022-11-30 19:27:08
,wl-rdm,178,646151,0.0-8.59-0.59,1.0,177.0,,,,,,,[],,,,,,73.6,1.0,i,1.0,True,712.5999999046326,43.0,60.0,40.0,False,,309.27882029517525,[],"[768, 432]",ColorTask,94.0,60.0,,,HRV,HRV_0233,2022-11-30 19:27:08
,wl-rdm,179,648201,0.0-8.60-0.60,1.0,178.0,,,,,,,[],,,,,,73.6,0.0,u,0.0,True,653.0999999046326,40.0,60.0,40.0,False,,304.91843088536825,[],"[768, 432]",ColorTask,95.0,61.0,,,HRV,HRV_0233,2022-11-30 19:27:08
,wl-rdm,180,650301,0.0-8.61-0.61,1.0,179.0,,,,,,,[],,,,,,73.6,1.0,i,1.0,True,781.2999999523163,47.0,60.0,40.0,False,,256.32259602458316,[],"[768, 432]",ColorTask,96.0,62.0,,,HRV,HRV_0233,2022-11-30 19:27:08
,wl-rdm,181,652501,0.0-8.62-0.62,1.0,180.0,,,,,,,[],,,,,,56.4,0.0,i,1.0,False,856.2999999523163,52.0,60.0,40.0,False,,277.2863162700636,[],"[768, 432]",ColorTask,95.0,63.0,,,HRV,HRV_0233,2022-11-30 19:27:08
,wl-rdm,182,654634,0.0-8.63-0.63,1.0,181.0,,,,,,,[],,,,,,56.4,0.0,u,0.0,True,710.0,43.0,60.0,40.0,False,,341.81986385036475,[],"[768, 432]",ColorTask,96.0,64.0,,,HRV,HRV_0233,2022-11-30 19:27:08
,wl-rdm,183,657017,0.0-8.64-0.64,1.0,182.0,,,,,,,[],,,,,,56.4,1.0,i,1.0,True,943.0,57.0,60.0,40.0,False,,370.1667602935345,[],"[768, 432]",ColorTask,97.0,65.0,,,HRV,HRV_0233,2022-11-30 19:27:08
,wl-rdm,184,659734,0.0-8.65-0.65,1.0,183.0,,,,,,,[],,,,,,50.0,1.0,u,0.0,False,1255.2999999523163,76.0,60.0,40.0,False,,392.48359933416344,[],"[768, 432]",ColorTask,96.0,66.0,,,HRV,HRV_0233,2022-11-30 19:27:08
,wl-rdm,185,662001,0.0-8.66-0.66,1.0,184.0,,,,,,,[],,,,,,62.5,1.0,i,1.0,True,919.0999999046326,56.0,60.0,40.0,False,,274.1159367941526,[],"[768, 432]",ColorTask,97.0,67.0,,,HRV,HRV_0233,2022-11-30 19:27:08
,wl-rdm,186,664084,0.0-8.67-0.67,1.0,185.0,,,,,,,[],,,,,,73.6,0.0,u,0.0,True,749.0,45.0,60.0,40.0,False,,257.7669827458199,[],"[768, 432]",ColorTask,98.0,68.0,,,HRV,HRV_0233,2022-11-30 19:27:08
,wl-rdm,187,666734,0.0-8.68-0.68,1.0,186.0,,,,,,,[],,,,,,53.2,1.0,i,1.0,True,1347.2999999523163,81.0,60.0,40.0,False,,232.54693329265325,[],"[768, 432]",ColorTask,99.0,69.0,,,HRV,HRV_0233,2022-11-30 19:27:08
,wl-rdm,188,668834,0.0-8.69-0.69,1.0,187.0,,,,,,,[],,,,,,56.4,0.0,i,1.0,False,825.6000001430511,50.0,60.0,40.0,False,,211.4794329796009,[],"[768, 432]",ColorTask,98.0,70.0,,,HRV,HRV_0233,2022-11-30 19:27:08
,wl-rdm,189,671384,0.0-8.70-0.70,1.0,188.0,,,,,,,[],,,,,,53.2,0.0,u,0.0,True,1095.1999998092651,66.0,60.0,40.0,False,,398.4122977026328,[],"[768, 432]",ColorTask,99.0,71.0,,,HRV,HRV_0233,2022-11-30 19:27:08
,wl-rdm,190,673667,0.0-8.71-0.71,1.0,189.0,,,,,,,[],,,,,,53.2,1.0,i,1.0,True,940.9999997615814,57.0,60.0,40.0,False,,278.4918933928019,[],"[768, 432]",ColorTask,100.0,72.0,,,HRV,HRV_0233,2022-11-30 19:27:08
,wl-rdm,191,675851,0.0-8.72-0.72,1.0,190.0,,,,,,,[],,,,,,53.2,1.0,i,1.0,True,883.0,53.0,60.0,40.0,False,,234.35659518787855,[],"[768, 432]",ColorTask,101.0,73.0,,,HRV,HRV_0233,2022-11-30 19:27:08
,wl-rdm,192,678001,0.0-8.73-0.73,1.0,191.0,,,,,,,[],,,,,,50.0,0.0,i,1.0,False,810.7999999523163,49.0,60.0,40.0,False,,270.410120435564,[],"[768, 432]",ColorTask,100.0,74.0,,,HRV,HRV_0233,2022-11-30 19:27:08
,wl-rdm,193,680017,0.0-8.74-0.74,1.0,192.0,,,,,,,[],,,,,,56.4,1.0,i,1.0,True,710.9000000953674,43.0,60.0,40.0,False,,232.16750346863986,[],"[768, 432]",ColorTask,101.0,75.0,,,HRV,HRV_0233,2022-11-30 19:27:08
,wl-rdm,194,682034,0.0-8.75-0.75,1.0,193.0,,,,,,,[],,,,,,53.2,1.0,i,1.0,True,668.4000000953674,41.0,60.0,40.0,False,,258.20285984392865,[],"[768, 432]",ColorTask,102.0,76.0,,,HRV,HRV_0233,2022-11-30 19:27:08
,wl-rdm,195,684267,0.0-8.76-0.76,1.0,194.0,,,,,,,[],,,,,,53.2,0.0,i,1.0,False,750.7000000476837,46.0,60.0,40.0,False,,399.16228613664794,[],"[768, 432]",ColorTask,101.0,77.0,,,HRV,HRV_0233,2022-11-30 19:27:08
,wl-rdm,196,686267,0.0-8.77-0.77,1.0,195.0,,,,,,,[],,,,,,87.9,0.0,u,0.0,True,624.5999999046326,38.0,60.0,40.0,False,,285.15939004037125,[],"[768, 432]",ColorTask,102.0,78.0,,,HRV,HRV_0233,2022-11-30 19:27:08
,wl-rdm,197,688451,0.0-8.78-0.78,1.0,196.0,,,,,,,[],,,,,,53.2,0.0,i,1.0,False,702.0,43.0,60.0,40.0,False,,384.08007806331443,[],"[768, 432]",ColorTask,101.0,79.0,,,HRV,HRV_0233,2022-11-30 19:27:08
,wl-rdm,198,690351,0.0-8.79-0.79,1.0,197.0,,,,,,,[],,,,,,50.0,1.0,u,0.0,False,604.5999999046326,37.0,60.0,40.0,False,,203.3405171530114,[],"[768, 432]",ColorTask,100.0,80.0,,,HRV,HRV_0233,2022-11-30 19:27:08
,wl-rdm,199,692467,0.0-8.80-0.80,1.0,198.0,,,,,,,[],,,,,,62.5,0.0,i,1.0,False,807.7000000476837,49.0,60.0,40.0,False,,222.59016310407162,[],"[768, 432]",ColorTask,99.0,81.0,,,HRV,HRV_0233,2022-11-30 19:27:08
,wl-rdm,200,694584,0.0-8.81-0.81,1.0,199.0,,,,,,,[],,,,,,87.9,1.0,i,1.0,True,711.6000001430511,43.0,60.0,40.0,False,,326.90157034211427,[],"[768, 432]",ColorTask,100.0,82.0,,,HRV,HRV_0233,2022-11-30 19:27:08
,wl-rdm,201,696551,0.0-8.82-0.82,1.0,200.0,,,,,,,[],,,,,,87.9,1.0,i,1.0,True,612.5999999046326,37.0,60.0,40.0,False,,287.86808976964323,[],"[768, 432]",ColorTask,101.0,83.0,,,HRV,HRV_0233,2022-11-30 19:27:08
,wl-rdm,202,698867,0.0-8.83-0.83,1.0,201.0,,,,,,,[],,,,,,62.5,1.0,i,1.0,True,882.1000001430511,53.0,60.0,40.0,False,,375.388897620249,[],"[768, 432]",ColorTask,102.0,84.0,,,HRV,HRV_0233,2022-11-30 19:27:08
,wl-rdm,203,700967,0.0-8.84-0.84,1.0,202.0,,,,,,,[],,,,,,73.6,1.0,i,1.0,True,778.2999999523163,47.0,60.0,40.0,False,,253.378883364822,[],"[768, 432]",ColorTask,103.0,85.0,,,HRV,HRV_0233,2022-11-30 19:27:08
,wl-rdm,204,703467,0.0-8.85-0.85,1.0,203.0,,,,,,,[],,,,,,56.4,0.0,u,0.0,True,1049.1999998092651,63.0,60.0,40.0,False,,395.2970911025618,[],"[768, 432]",ColorTask,104.0,86.0,,,HRV,HRV_0233,2022-11-30 19:27:08
,wl-rdm,205,705451,0.0-8.86-0.86,1.0,204.0,,,,,,,[],,,,,,87.9,0.0,u,0.0,True,618.2999999523163,38.0,60.0,40.0,False,,282.58217776097047,[],"[768, 432]",ColorTask,105.0,87.0,,,HRV,HRV_0233,2022-11-30 19:27:08
,wl-rdm,206,707784,0.0-8.87-0.87,1.0,205.0,,,,,,,[],,,,,,62.5,1.0,i,1.0,True,961.7999999523163,58.0,60.0,40.0,False,,301.511865136289,[],"[768, 432]",ColorTask,106.0,88.0,,,HRV,HRV_0233,2022-11-30 19:27:08
,wl-rdm,207,710084,0.0-8.88-0.88,1.0,206.0,,,,,,,[],,,,,,62.5,1.0,i,1.0,True,998.6999998092651,60.0,60.0,40.0,False,,245.3926160979071,[],"[768, 432]",ColorTask,107.0,89.0,,,HRV,HRV_0233,2022-11-30 19:27:08
,wl-rdm,208,711934,0.0-8.89-0.89,1.0,207.0,,,,,,,[],,,,,,56.4,1.0,i,1.0,True,556.0,34.0,60.0,40.0,False,,204.90669139599376,[],"[768, 432]",ColorTask,108.0,90.0,,,HRV,HRV_0233,2022-11-30 19:27:08
,wl-rdm,209,714001,0.0-8.90-0.90,1.0,208.0,,,,,,,[],,,,,,50.0,1.0,i,1.0,True,752.8999998569489,46.0,60.0,40.0,False,,222.85936024364227,[],"[768, 432]",ColorTask,109.0,91.0,,,HRV,HRV_0233,2022-11-30 19:27:08
,wl-rdm,210,716401,0.0-8.91-0.91,1.0,209.0,,,,,,,[],,,,,,50.0,1.0,i,1.0,True,935.2999999523163,57.0,60.0,40.0,False,,387.69377469803794,[],"[768, 432]",ColorTask,110.0,92.0,,,HRV,HRV_0233,2022-11-30 19:27:08
,wl-rdm,211,718651,0.0-8.92-0.92,1.0,210.0,,,,,,,[],,,,,,87.9,0.0,i,1.0,False,833.0,50.0,60.0,40.0,False,,366.20836090741136,[],"[768, 432]",ColorTask,109.0,93.0,,,HRV,HRV_0233,2022-11-30 19:27:08
,wl-rdm,212,720584,0.0-8.93-0.93,1.0,211.0,,,,,,,[],,,,,,56.4,0.0,i,1.0,False,619.9000000953674,38.0,60.0,40.0,False,,230.15692907501182,[],"[768, 432]",ColorTask,108.0,94.0,,,HRV,HRV_0233,2022-11-30 19:27:08
,wl-rdm,213,722651,0.0-8.94-0.94,1.0,212.0,,,,,,,[],,,,,,53.2,1.0,i,1.0,True,768.3999998569489,47.0,60.0,40.0,False,,216.162355424413,[],"[768, 432]",ColorTask,109.0,95.0,,,HRV,HRV_0233,2022-11-30 19:27:08
,wl-rdm,214,724968,0.0-8.95-0.95,1.0,213.0,,,,,,,[],,,,,,56.4,1.0,i,1.0,True,912.2999999523163,55.0,60.0,40.0,False,,330.9066561704392,[],"[768, 432]",ColorTask,110.0,96.0,,,HRV,HRV_0233,2022-11-30 19:27:08
,wl-rdm,215,727184,0.0-8.96-0.96,1.0,214.0,,,,,,,[],,,,,,50.0,0.0,i,1.0,False,785.5999999046326,48.0,60.0,40.0,False,,352.486294395624,[],"[768, 432]",ColorTask,109.0,97.0,,,HRV,HRV_0233,2022-11-30 19:27:08
,wl-rdm,216,729234,0.0-8.97-0.97,1.0,215.0,,,,,,,[],,,,,,53.2,0.0,i,1.0,False,775.7000000476837,47.0,60.0,40.0,False,,205.4700882490447,[],"[768, 432]",ColorTask,108.0,98.0,,,HRV,HRV_0233,2022-11-30 19:27:08
,wl-rdm,217,731251,0.0-8.98-0.98,1.0,216.0,,,,,,,[],,,,,,73.6,0.0,u,0.0,True,725.3999998569489,44.0,60.0,40.0,False,,211.94413480199313,[],"[768, 432]",ColorTask,109.0,99.0,,,HRV,HRV_0233,2022-11-30 19:27:08
,wl-rdm,218,733618,0.0-8.99-0.99,1.0,217.0,,,,,,,[],,,,,,62.5,0.0,u,0.0,True,935.5999999046326,57.0,60.0,40.0,False,,360.7748564623048,[],"[768, 432]",ColorTask,110.0,100.0,,,HRV,HRV_0233,2022-11-30 19:27:08
,wl-rdm,219,735985,0.0-8.100-0.100,1.0,218.0,,,,,,,[],,,,,,53.2,1.0,i,1.0,True,986.7999997138977,60.0,60.0,40.0,False,,294.1837903845806,[],"[768, 432]",ColorTask,111.0,101.0,,,HRV,HRV_0233,2022-11-30 19:27:08
,wl-rdm,220,738018,0.0-8.101-0.101,1.0,219.0,,,,,,,[],,,,,,87.9,0.0,u,0.0,True,718.7999999523163,44.0,60.0,40.0,False,,225.17386206241824,[],"[768, 432]",ColorTask,112.0,102.0,,,HRV,HRV_0233,2022-11-30 19:27:08
,wl-rdm,221,740068,0.0-8.102-0.102,1.0,220.0,,,,,,,[],,,,,,53.2,0.0,i,1.0,False,707.5,43.0,60.0,40.0,False,,283.02303351025705,[],"[768, 432]",ColorTask,111.0,103.0,,,HRV,HRV_0233,2022-11-30 19:27:08
,wl-rdm,222,742318,0.0-8.103-0.103,1.0,221.0,,,,,,,[],,,,,,50.0,0.0,u,0.0,True,980.2999999523163,59.0,60.0,40.0,False,,207.84098346742493,[],"[768, 432]",ColorTask,112.0,104.0,,,HRV,HRV_0233,2022-11-30 19:27:08
,wl-rdm,223,744385,0.0-8.104-0.104,1.0,222.0,,,,,,,[],,,,,,87.9,1.0,i,1.0,True,736.7000000476837,45.0,60.0,40.0,False,,239.5750911217042,[],"[768, 432]",ColorTask,113.0,105.0,,,HRV,HRV_0233,2022-11-30 19:27:08
,wl-rdm,224,746585,0.0-8.105-0.105,1.0,223.0,,,,,,,[],,,,,,87.9,1.0,i,1.0,True,786.5,48.0,60.0,40.0,False,,317.1467009212339,[],"[768, 432]",ColorTask,114.0,106.0,,,HRV,HRV_0233,2022-11-30 19:27:08
,wl-rdm,225,748785,0.0-8.106-0.106,1.0,224.0,,,,,,,[],,,,,,62.5,0.0,i,1.0,False,819.7000002861023,50.0,60.0,40.0,False,,291.0631794238153,[],"[768, 432]",ColorTask,113.0,107.0,,,HRV,HRV_0233,2022-11-30 19:27:08
,wl-rdm,226,751234,0.0-8.107-0.107,1.0,225.0,,,,,,,[],,,,,,62.5,0.0,u,0.0,True,1108.8000001907349,67.0,60.0,40.0,False,,266.78120389667913,[],"[768, 432]",ColorTask,114.0,108.0,,,HRV,HRV_0233,2022-11-30 19:27:08
,wl-html-button-response,227,756498,0.0-9.0-0.0,,,,,,,,,,5261.799999952316,,0,,,,,,,,,,,,,,,,,,,,<h3>End of this session. Thank you!</h3><br>,['Close window'],HRV,HRV_0233,2022-11-30 19:27:08
