trialN,stimuli,trialStartTime,trialStartTime_UNIX,stimulus1,stimulus2,stimulus1Bid,stimulus2Bid,delta,selected,rt,rt_UNIX,rt_perfnow,receivedResponse,rsp,trialEndTime,trialDuration,trialEndTime_UNIX,trialDuration_UNIX,exp,subjectId,date
0,"[{'imgObject': {}, 'id': 'roastedpotatoes', 'src': '/static/foodstim60/roastedpotatoes.jpg', 'key': 'u', 'origWidth': 409, 'origHeight': 410, 'width': 409, 'height': 410, 'widthPercent': 0.45, 'rescaleHeight': False, 'trialN': 0, 'loaded': True, 'loadedTime': 2575.800000190735, 'positionName': 'LEFT', 'positionCoords': [328.28, 227], 'bid': 4.67}, {'imgObject': {}, 'id': 'cherry tomato', 'src': '/static/foodstim60/cherry tomato.jpg', 'key': 'i', 'origWidth': 410, 'origHeight': 410, 'width': 410, 'height': 410, 'widthPercent': 0.45, 'rescaleHeight': False, 'trialN': 0, 'loaded': True, 'loadedTime': 2589.100000143051, 'positionName': 'RIGHT', 'positionCoords': [798.72, 227], 'bid': 4.8}]",2707.300000190735,1669835384201,roastedpotatoes,cherry tomato,4.67,4.8,0.1299999999999999,roastedpotatoes,2237.7999999523163,2239,2238.2999999523163,True,u,5451.900000095367,2744.5999999046326,1669835386946,2745,HRV,HRV_0233,2022-11-30 19:14:22
1,"[{'imgObject': {}, 'id': 'seaweed', 'src': '/static/foodstim60/seaweed.jpg', 'key': 'u', 'origWidth': 410, 'origHeight': 410, 'width': 410, 'height': 410, 'widthPercent': 0.45, 'rescaleHeight': False, 'trialN': 1, 'loaded': True, 'loadedTime': 2590.7000000476837, 'positionName': 'LEFT', 'positionCoords': [327.28, 227], 'bid': 4.44}, {'imgObject': {}, 'id': 'granola w milk', 'src': '/static/foodstim60/granola w milk.jpg', 'key': 'i', 'origWidth': 410, 'origHeight': 410, 'width': 410, 'height': 410, 'widthPercent': 0.45, 'rescaleHeight': False, 'trialN': 1, 'loaded': True, 'loadedTime': 2592.100000143051, 'positionName': 'RIGHT', 'positionCoords': [798.72, 227], 'bid': 5.2700000000000005}]",5452.200000047684,1669835386946,seaweed,granola w milk,4.44,5.2700000000000005,0.8300000000000001,granola w milk,1485.0,1485,1485.4000000953674,True,i,7443.900000095367,1991.7000000476837,1669835388938,1992,HRV,HRV_0233,2022-11-30 19:14:22
2,"[{'imgObject': {}, 'id': 'chickenfingers', 'src': '/static/foodstim60/chickenfingers.jpg', 'key': 'u', 'origWidth': 410, 'origHeight': 410, 'width': 410, 'height': 410, 'widthPercent': 0.45, 'rescaleHeight': False, 'trialN': 2, 'loaded': True, 'loadedTime': 2593.4000000953674, 'positionName': 'LEFT', 'positionCoords': [327.28, 227], 'bid': 6.09}, {'imgObject': {}, 'id': 'burrito', 'src': '/static/foodstim60/burrito.jpg', 'key': 'i', 'origWidth': 410, 'origHeight': 410, 'width': 410, 'height': 410, 'widthPercent': 0.45, 'rescaleHeight': False, 'trialN': 2, 'loaded': True, 'loadedTime': 2594.9000000953674, 'positionName': 'RIGHT', 'positionCoords': [798.72, 227], 'bid': 5.72}]",7444.0,1669835388938,chickenfingers,burrito,6.09,5.72,-0.3700000000000001,chickenfingers,1308.7000000476837,1309,1308.9000000953674,True,u,9260.0,1816.0,1669835390754,1816,HRV,HRV_0233,2022-11-30 19:14:22
3,"[{'imgObject': {}, 'id': 'avocado', 'src': '/static/foodstim60/avocado.jpg', 'key': 'u', 'origWidth': 409, 'origHeight': 409, 'width': 409, 'height': 409, 'widthPercent': 0.45, 'rescaleHeight': False, 'trialN': 3, 'loaded': True, 'loadedTime': 2595.2000000476837, 'positionName': 'LEFT', 'positionCoords': [328.28, 227.5], 'bid': 5.87}, {'imgObject': {}, 'id': 'rigatoni and sauce', 'src': '/static/foodstim60/rigatoni and sauce.jpg', 'key': 'i', 'origWidth': 410, 'origHeight': 411, 'width': 410, 'height': 411, 'widthPercent': 0.45, 'rescaleHeight': False, 'trialN': 3, 'loaded': True, 'loadedTime': 2597.2000000476837, 'positionName': 'RIGHT', 'positionCoords': [798.72, 226.5], 'bid': 5.79}]",9260.200000047684,1669835390754,avocado,rigatoni and sauce,5.87,5.79,-0.08000000000000007,rigatoni and sauce,1589.1000001430511,1589,1589.2000000476837,True,i,11356.5,2096.2999999523163,1669835392850,2096,HRV,HRV_0233,2022-11-30 19:14:22
4,"[{'imgObject': {}, 'id': 'omelette', 'src': '/static/foodstim60/omelette.jpg', 'key': 'u', 'origWidth': 410, 'origHeight': 409, 'width': 410, 'height': 409, 'widthPercent': 0.45, 'rescaleHeight': False, 'trialN': 4, 'loaded': True, 'loadedTime': 2598.7000000476837, 'positionName': 'LEFT', 'positionCoords': [327.28, 227.5], 'bid': 5.5200000000000005}, {'imgObject': {}, 'id': 'cocktailshrimp', 'src': '/static/foodstim60/cocktailshrimp.jpg', 'key': 'i', 'origWidth': 410, 'origHeight': 410, 'width': 410, 'height': 410, 'widthPercent': 0.45, 'rescaleHeight': False, 'trialN': 4, 'loaded': True, 'loadedTime': 2599.7000000476837, 'positionName': 'RIGHT', 'positionCoords': [798.72, 227], 'bid': 5.5}]",11356.600000143051,1669835392851,omelette,cocktailshrimp,5.5200000000000005,5.5,-0.020000000000000462,omelette,1316.3999998569489,1316,1316.7999999523163,True,u,13180.300000190735,1823.7000000476837,1669835394674,1823,HRV,HRV_0233,2022-11-30 19:14:22
5,"[{'imgObject': {}, 'id': 'turkeysandwich', 'src': '/static/foodstim60/turkeysandwich.jpg', 'key': 'u', 'origWidth': 409, 'origHeight': 409, 'width': 409, 'height': 409, 'widthPercent': 0.45, 'rescaleHeight': False, 'trialN': 5, 'loaded': True, 'loadedTime': 2600.600000143051, 'positionName': 'LEFT', 'positionCoords': [328.28, 227.5], 'bid': 5.29}, {'imgObject': {}, 'id': 'corn cob', 'src': '/static/foodstim60/corn cob.jpg', 'key': 'i', 'origWidth': 411, 'origHeight': 411, 'width': 411, 'height': 411, 'widthPercent': 0.45, 'rescaleHeight': False, 'trialN': 5, 'loaded': True, 'loadedTime': 2608.2000000476837, 'positionName': 'RIGHT', 'positionCoords': [798.72, 226.5], 'bid': 5.3100000000000005}]",13180.400000095367,1669835394674,turkeysandwich,corn cob,5.29,5.3100000000000005,0.020000000000000462,turkeysandwich,892.7000000476837,893,893.0999999046326,True,u,14580.200000047684,1399.7999999523163,1669835396074,1400,HRV,HRV_0233,2022-11-30 19:14:22
6,"[{'imgObject': {}, 'id': 'bagel and cc', 'src': '/static/foodstim60/bagel and cc.jpg', 'key': 'u', 'origWidth': 410, 'origHeight': 410, 'width': 410, 'height': 410, 'widthPercent': 0.45, 'rescaleHeight': False, 'trialN': 6, 'loaded': True, 'loadedTime': 2616.2000000476837, 'positionName': 'LEFT', 'positionCoords': [327.28, 227], 'bid': 6.61}, {'imgObject': {}, 'id': 'steak', 'src': '/static/foodstim60/steak.jpg', 'key': 'i', 'origWidth': 410, 'origHeight': 410, 'width': 410, 'height': 410, 'widthPercent': 0.45, 'rescaleHeight': False, 'trialN': 6, 'loaded': True, 'loadedTime': 2627.100000143051, 'positionName': 'RIGHT', 'positionCoords': [798.72, 227], 'bid': 7.3}]",14580.300000190735,1669835396074,bagel and cc,steak,6.61,7.3,0.6899999999999995,steak,636.5999999046326,637,637.0,True,i,15723.800000190735,1143.5,1669835397218,1144,HRV,HRV_0233,2022-11-30 19:14:22
7,"[{'imgObject': {}, 'id': 'cherry tomato', 'src': '/static/foodstim60/cherry tomato.jpg', 'key': 'u', 'origWidth': 410, 'origHeight': 410, 'width': 410, 'height': 410, 'widthPercent': 0.45, 'rescaleHeight': False, 'trialN': 7, 'loaded': True, 'loadedTime': 2587.600000143051, 'positionName': 'LEFT', 'positionCoords': [327.28, 227], 'bid': 4.8}, {'imgObject': {}, 'id': 'hashbrowns', 'src': '/static/foodstim60/hashbrowns.jpg', 'key': 'i', 'origWidth': 411, 'origHeight': 410, 'width': 411, 'height': 410, 'widthPercent': 0.45, 'rescaleHeight': False, 'trialN': 7, 'loaded': True, 'loadedTime': 2628.100000143051, 'positionName': 'RIGHT', 'positionCoords': [798.72, 227], 'bid': 5.3500000000000005}]",15724.0,1669835397218,cherry tomato,hashbrowns,4.8,5.3500000000000005,0.5500000000000007,hashbrowns,989.2000000476837,989,989.5,True,i,17219.400000095367,1495.4000000953674,1669835398713,1495,HRV,HRV_0233,2022-11-30 19:14:22
8,"[{'imgObject': {}, 'id': 'froot loops w milk', 'src': '/static/foodstim60/froot loops w milk.jpg', 'key': 'u', 'origWidth': 410, 'origHeight': 410, 'width': 410, 'height': 410, 'widthPercent': 0.45, 'rescaleHeight': False, 'trialN': 8, 'loaded': True, 'loadedTime': 2631.100000143051, 'positionName': 'LEFT', 'positionCoords': [327.28, 227], 'bid': 5.29}, {'imgObject': {}, 'id': 'corn cob', 'src': '/static/foodstim60/corn cob.jpg', 'key': 'i', 'origWidth': 411, 'origHeight': 411, 'width': 411, 'height': 411, 'widthPercent': 0.45, 'rescaleHeight': False, 'trialN': 8, 'loaded': True, 'loadedTime': 2608.300000190735, 'positionName': 'RIGHT', 'positionCoords': [798.72, 226.5], 'bid': 5.3100000000000005}]",17219.700000047684,1669835398714,froot loops w milk,corn cob,5.29,5.3100000000000005,0.020000000000000462,froot loops w milk,1116.7000000476837,1117,1117.1000001430511,True,u,18843.700000047684,1624.0,1669835400338,1624,HRV,HRV_0233,2022-11-30 19:14:22
9,"[{'imgObject': {}, 'id': 'lox', 'src': '/static/foodstim60/lox.jpg', 'key': 'u', 'origWidth': 410, 'origHeight': 411, 'width': 410, 'height': 411, 'widthPercent': 0.45, 'rescaleHeight': False, 'trialN': 9, 'loaded': True, 'loadedTime': 2633.5, 'positionName': 'LEFT', 'positionCoords': [327.28, 226.5], 'bid': 5}, {'imgObject': {}, 'id': 'banana', 'src': '/static/foodstim60/banana.jpg', 'key': 'i', 'origWidth': 410, 'origHeight': 410, 'width': 410, 'height': 410, 'widthPercent': 0.45, 'rescaleHeight': False, 'trialN': 9, 'loaded': True, 'loadedTime': 2636.100000143051, 'positionName': 'RIGHT', 'positionCoords': [798.72, 227], 'bid': 5.01}]",18843.800000190735,1669835400338,lox,banana,5.0,5.01,0.009999999999999787,banana,773.2999999523163,773,773.5999999046326,True,i,20124.300000190735,1280.5,1669835401618,1280,HRV,HRV_0233,2022-11-30 19:14:22
10,"[{'imgObject': {}, 'id': 'cocktailshrimp', 'src': '/static/foodstim60/cocktailshrimp.jpg', 'key': 'u', 'origWidth': 410, 'origHeight': 410, 'width': 410, 'height': 410, 'widthPercent': 0.45, 'rescaleHeight': False, 'trialN': 10, 'loaded': True, 'loadedTime': 2599.4000000953674, 'positionName': 'LEFT', 'positionCoords': [327.28, 227], 'bid': 5.5}, {'imgObject': {}, 'id': 'baked potato', 'src': '/static/foodstim60/baked potato.jpg', 'key': 'i', 'origWidth': 409, 'origHeight': 410, 'width': 409, 'height': 410, 'widthPercent': 0.45, 'rescaleHeight': False, 'trialN': 10, 'loaded': True, 'loadedTime': 2636.600000143051, 'positionName': 'RIGHT', 'positionCoords': [798.72, 227], 'bid': 5.44}]",20124.400000095367,1669835401618,cocktailshrimp,baked potato,5.5,5.44,-0.05999999999999961,baked potato,1444.5999999046326,1445,1444.7999999523163,True,i,22076.60000014305,1952.2000000476837,1669835403571,1953,HRV,HRV_0233,2022-11-30 19:14:22
11,"[{'imgObject': {}, 'id': 'shreddedwheatwithmilk', 'src': '/static/foodstim60/shreddedwheatwithmilk.jpg', 'key': 'u', 'origWidth': 410, 'origHeight': 410, 'width': 410, 'height': 410, 'widthPercent': 0.45, 'rescaleHeight': False, 'trialN': 11, 'loaded': True, 'loadedTime': 2642.100000143051, 'positionName': 'LEFT', 'positionCoords': [327.28, 227], 'bid': 5.63}, {'imgObject': {}, 'id': 'fried eggs', 'src': '/static/foodstim60/fried eggs.jpg', 'key': 'i', 'origWidth': 410, 'origHeight': 410, 'width': 410, 'height': 410, 'widthPercent': 0.45, 'rescaleHeight': False, 'trialN': 11, 'loaded': True, 'loadedTime': 2646.300000190735, 'positionName': 'RIGHT', 'positionCoords': [798.72, 227], 'bid': 5.58}]",22076.700000047684,1669835403571,shreddedwheatwithmilk,fried eggs,5.63,5.58,-0.04999999999999982,fried eggs,1108.2000000476837,1108,1108.5,True,i,23692.400000095367,1615.7000000476837,1669835405186,1615,HRV,HRV_0233,2022-11-30 19:14:22
12,"[{'imgObject': {}, 'id': 'fruitsalad', 'src': '/static/foodstim60/fruitsalad.jpg', 'key': 'u', 'origWidth': 410, 'origHeight': 410, 'width': 410, 'height': 410, 'widthPercent': 0.45, 'rescaleHeight': False, 'trialN': 12, 'loaded': True, 'loadedTime': 2648.9000000953674, 'positionName': 'LEFT', 'positionCoords': [327.28, 227], 'bid': 7.74}, {'imgObject': {}, 'id': 'Grapes', 'src': '/static/foodstim60/Grapes.jpg', 'key': 'i', 'origWidth': 411, 'origHeight': 411, 'width': 411, 'height': 411, 'widthPercent': 0.45, 'rescaleHeight': False, 'trialN': 12, 'loaded': True, 'loadedTime': 2650.7000000476837, 'positionName': 'RIGHT', 'positionCoords': [798.72, 226.5], 'bid': 7.63}]",23692.5,1669835405186,fruitsalad,Grapes,7.74,7.63,-0.11000000000000032,fruitsalad,1876.0,1877,1876.2000000476837,True,u,26073.400000095367,2380.9000000953674,1669835407567,2381,HRV,HRV_0233,2022-11-30 19:14:22
13,"[{'imgObject': {}, 'id': 'pear', 'src': '/static/foodstim60/pear.jpg', 'key': 'u', 'origWidth': 411, 'origHeight': 410, 'width': 411, 'height': 410, 'widthPercent': 0.45, 'rescaleHeight': False, 'trialN': 13, 'loaded': True, 'loadedTime': 2651.7000000476837, 'positionName': 'LEFT', 'positionCoords': [326.28, 227], 'bid': 4.21}, {'imgObject': {}, 'id': 'apple slices', 'src': '/static/foodstim60/apple slices.jpg', 'key': 'i', 'origWidth': 409, 'origHeight': 410, 'width': 409, 'height': 410, 'widthPercent': 0.45, 'rescaleHeight': False, 'trialN': 13, 'loaded': True, 'loadedTime': 2655.800000190735, 'positionName': 'RIGHT', 'positionCoords': [798.72, 227], 'bid': 4.15}]",26073.60000014305,1669835407568,pear,apple slices,4.21,4.15,-0.05999999999999961,apple slices,816.0999999046326,816,816.5,True,i,27396.60000014305,1323.0,1669835408891,1323,HRV,HRV_0233,2022-11-30 19:14:22
14,"[{'imgObject': {}, 'id': 'edamame', 'src': '/static/foodstim60/edamame.jpg', 'key': 'u', 'origWidth': 409, 'origHeight': 410, 'width': 409, 'height': 410, 'widthPercent': 0.45, 'rescaleHeight': False, 'trialN': 14, 'loaded': True, 'loadedTime': 2656.4000000953674, 'positionName': 'LEFT', 'positionCoords': [328.28, 227], 'bid': 1.86}, {'imgObject': {}, 'id': 'cocktailshrimp', 'src': '/static/foodstim60/cocktailshrimp.jpg', 'key': 'i', 'origWidth': 410, 'origHeight': 410, 'width': 410, 'height': 410, 'widthPercent': 0.45, 'rescaleHeight': False, 'trialN': 14, 'loaded': True, 'loadedTime': 2599.600000143051, 'positionName': 'RIGHT', 'positionCoords': [798.72, 227], 'bid': 5.5}]",27396.60000014305,1669835408891,edamame,cocktailshrimp,1.86,5.5,3.6399999999999997,cocktailshrimp,908.3999998569489,908,908.7000000476837,True,i,28813.200000047684,1416.5999999046326,1669835410307,1416,HRV,HRV_0233,2022-11-30 19:14:22
15,"[{'imgObject': {}, 'id': 'hashbrowns', 'src': '/static/foodstim60/hashbrowns.jpg', 'key': 'u', 'origWidth': 411, 'origHeight': 410, 'width': 411, 'height': 410, 'widthPercent': 0.45, 'rescaleHeight': False, 'trialN': 15, 'loaded': True, 'loadedTime': 2627.4000000953674, 'positionName': 'LEFT', 'positionCoords': [326.28, 227], 'bid': 5.3500000000000005}, {'imgObject': {}, 'id': 'mac & cheese', 'src': '/static/foodstim60/mac & cheese.jpg', 'key': 'i', 'origWidth': 410, 'origHeight': 410, 'width': 410, 'height': 410, 'widthPercent': 0.45, 'rescaleHeight': False, 'trialN': 15, 'loaded': True, 'loadedTime': 2658.300000190735, 'positionName': 'RIGHT', 'positionCoords': [798.72, 227], 'bid': 5.32}]",28813.400000095367,1669835410307,hashbrowns,mac & cheese,5.3500000000000005,5.32,-0.03000000000000025,mac & cheese,875.7000000476837,876,876.0,True,i,30195.900000095367,1382.5,1669835411690,1383,HRV,HRV_0233,2022-11-30 19:14:22
16,"[{'imgObject': {}, 'id': 'blackbeanswithrice', 'src': '/static/foodstim60/blackbeanswithrice.jpg', 'key': 'u', 'origWidth': 410, 'origHeight': 410, 'width': 410, 'height': 410, 'widthPercent': 0.45, 'rescaleHeight': False, 'trialN': 16, 'loaded': True, 'loadedTime': 2658.800000190735, 'positionName': 'LEFT', 'positionCoords': [327.28, 227], 'bid': 5.84}, {'imgObject': {}, 'id': 'burrito', 'src': '/static/foodstim60/burrito.jpg', 'key': 'i', 'origWidth': 410, 'origHeight': 410, 'width': 410, 'height': 410, 'widthPercent': 0.45, 'rescaleHeight': False, 'trialN': 16, 'loaded': True, 'loadedTime': 2595.100000143051, 'positionName': 'RIGHT', 'positionCoords': [798.72, 227], 'bid': 5.72}]",30196.10000014305,1669835411690,blackbeanswithrice,burrito,5.84,5.72,-0.1200000000000001,blackbeanswithrice,844.8999998569489,845,845.0,True,u,31548.60000014305,1352.5,1669835413043,1353,HRV,HRV_0233,2022-11-30 19:14:22
17,"[{'imgObject': {}, 'id': 'rigatoni and sauce', 'src': '/static/foodstim60/rigatoni and sauce.jpg', 'key': 'u', 'origWidth': 410, 'origHeight': 411, 'width': 410, 'height': 411, 'widthPercent': 0.45, 'rescaleHeight': False, 'trialN': 17, 'loaded': True, 'loadedTime': 2597.300000190735, 'positionName': 'LEFT', 'positionCoords': [327.28, 226.5], 'bid': 5.79}, {'imgObject': {}, 'id': 'cocktailshrimp', 'src': '/static/foodstim60/cocktailshrimp.jpg', 'key': 'i', 'origWidth': 410, 'origHeight': 410, 'width': 410, 'height': 410, 'widthPercent': 0.45, 'rescaleHeight': False, 'trialN': 17, 'loaded': True, 'loadedTime': 2598.9000000953674, 'positionName': 'RIGHT', 'positionCoords': [798.72, 227], 'bid': 5.5}]",31548.800000190735,1669835413043,rigatoni and sauce,cocktailshrimp,5.79,5.5,-0.29000000000000004,cocktailshrimp,1108.2999999523163,1108,1108.6999998092651,True,i,33165.0,1616.1999998092651,1669835414659,1616,HRV,HRV_0233,2022-11-30 19:14:22
18,"[{'imgObject': {}, 'id': 'fried eggs', 'src': '/static/foodstim60/fried eggs.jpg', 'key': 'u', 'origWidth': 410, 'origHeight': 410, 'width': 410, 'height': 410, 'widthPercent': 0.45, 'rescaleHeight': False, 'trialN': 18, 'loaded': True, 'loadedTime': 2646.300000190735, 'positionName': 'LEFT', 'positionCoords': [327.28, 227], 'bid': 5.58}, {'imgObject': {}, 'id': 'baked potato', 'src': '/static/foodstim60/baked potato.jpg', 'key': 'i', 'origWidth': 409, 'origHeight': 410, 'width': 409, 'height': 410, 'widthPercent': 0.45, 'rescaleHeight': False, 'trialN': 18, 'loaded': True, 'loadedTime': 2636.800000190735, 'positionName': 'RIGHT', 'positionCoords': [798.72, 227], 'bid': 5.44}]",33165.10000014305,1669835414659,fried eggs,baked potato,5.58,5.44,-0.13999999999999968,baked potato,1283.7999999523163,1284,1284.0,True,i,34955.60000014305,1790.5,1669835416450,1791,HRV,HRV_0233,2022-11-30 19:14:22
19,"[{'imgObject': {}, 'id': 'cherries', 'src': '/static/foodstim60/cherries.jpg', 'key': 'u', 'origWidth': 410, 'origHeight': 411, 'width': 410, 'height': 411, 'widthPercent': 0.45, 'rescaleHeight': False, 'trialN': 19, 'loaded': True, 'loadedTime': 2659.600000143051, 'positionName': 'LEFT', 'positionCoords': [327.28, 226.5], 'bid': 5.39}, {'imgObject': {}, 'id': 'cheerios', 'src': '/static/foodstim60/cheerios.jpg', 'key': 'i', 'origWidth': 409, 'origHeight': 410, 'width': 409, 'height': 410, 'widthPercent': 0.45, 'rescaleHeight': False, 'trialN': 19, 'loaded': True, 'loadedTime': 2660.7000000476837, 'positionName': 'RIGHT', 'positionCoords': [798.72, 227], 'bid': 5.63}]",34955.700000047684,1669835416450,cherries,cheerios,5.39,5.63,0.2400000000000002,cherries,741.2999999523163,741,741.7000000476837,True,u,36197.5,1241.7999999523163,1669835417691,1241,HRV,HRV_0233,2022-11-30 19:14:22
20,"[{'imgObject': {}, 'id': 'chickenfingers', 'src': '/static/foodstim60/chickenfingers.jpg', 'key': 'u', 'origWidth': 410, 'origHeight': 410, 'width': 410, 'height': 410, 'widthPercent': 0.45, 'rescaleHeight': False, 'trialN': 20, 'loaded': True, 'loadedTime': 2593.5, 'positionName': 'LEFT', 'positionCoords': [327.28, 227], 'bid': 6.09}, {'imgObject': {}, 'id': 'bagel and cc', 'src': '/static/foodstim60/bagel and cc.jpg', 'key': 'i', 'origWidth': 410, 'origHeight': 410, 'width': 410, 'height': 410, 'widthPercent': 0.45, 'rescaleHeight': False, 'trialN': 20, 'loaded': True, 'loadedTime': 2614.5, 'positionName': 'RIGHT', 'positionCoords': [798.72, 227], 'bid': 6.61}]",36197.800000190735,1669835417692,chickenfingers,bagel and cc,6.09,6.61,0.5200000000000005,chickenfingers,659.1999998092651,659,659.5999999046326,True,u,37363.800000190735,1166.0,1669835418858,1166,HRV,HRV_0233,2022-11-30 19:14:22
21,"[{'imgObject': {}, 'id': 'cocktailshrimp', 'src': '/static/foodstim60/cocktailshrimp.jpg', 'key': 'u', 'origWidth': 410, 'origHeight': 410, 'width': 410, 'height': 410, 'widthPercent': 0.45, 'rescaleHeight': False, 'trialN': 21, 'loaded': True, 'loadedTime': 2599.7000000476837, 'positionName': 'LEFT', 'positionCoords': [327.28, 227], 'bid': 5.5}, {'imgObject': {}, 'id': 'granola w milk', 'src': '/static/foodstim60/granola w milk.jpg', 'key': 'i', 'origWidth': 410, 'origHeight': 410, 'width': 410, 'height': 410, 'widthPercent': 0.45, 'rescaleHeight': False, 'trialN': 21, 'loaded': True, 'loadedTime': 2592.2000000476837, 'positionName': 'RIGHT', 'positionCoords': [798.72, 227], 'bid': 5.2700000000000005}]",37364.0,1669835418858,cocktailshrimp,granola w milk,5.5,5.2700000000000005,-0.22999999999999954,cocktailshrimp,949.3000001907349,950,949.6000001430511,True,u,38820.90000009537,1456.9000000953674,1669835420315,1457,HRV,HRV_0233,2022-11-30 19:14:22
22,"[{'imgObject': {}, 'id': 'Grapes', 'src': '/static/foodstim60/Grapes.jpg', 'key': 'u', 'origWidth': 411, 'origHeight': 411, 'width': 411, 'height': 411, 'widthPercent': 0.45, 'rescaleHeight': False, 'trialN': 22, 'loaded': True, 'loadedTime': 2649.800000190735, 'positionName': 'LEFT', 'positionCoords': [326.28, 226.5], 'bid': 7.63}, {'imgObject': {}, 'id': 'baked potato', 'src': '/static/foodstim60/baked potato.jpg', 'key': 'i', 'origWidth': 409, 'origHeight': 410, 'width': 409, 'height': 410, 'widthPercent': 0.45, 'rescaleHeight': False, 'trialN': 22, 'loaded': True, 'loadedTime': 2636.9000000953674, 'positionName': 'RIGHT', 'positionCoords': [798.72, 227], 'bid': 5.44}]",38821.0,1669835420315,Grapes,baked potato,7.63,5.44,-2.1899999999999995,Grapes,780.0,780,780.4000000953674,True,u,40108.200000047684,1287.2000000476837,1669835421602,1287,HRV,HRV_0233,2022-11-30 19:14:22
23,"[{'imgObject': {}, 'id': 'cantaloupe', 'src': '/static/foodstim60/cantaloupe.jpg', 'key': 'u', 'origWidth': 409, 'origHeight': 409, 'width': 409, 'height': 409, 'widthPercent': 0.45, 'rescaleHeight': False, 'trialN': 23, 'loaded': True, 'loadedTime': 2661.9000000953674, 'positionName': 'LEFT', 'positionCoords': [328.28, 227.5], 'bid': 4.63}, {'imgObject': {}, 'id': 'yogurt no spoon', 'src': '/static/foodstim60/yogurt no spoon.jpg', 'key': 'i', 'origWidth': 411, 'origHeight': 410, 'width': 411, 'height': 410, 'widthPercent': 0.45, 'rescaleHeight': False, 'trialN': 23, 'loaded': True, 'loadedTime': 2662, 'positionName': 'RIGHT', 'positionCoords': [798.72, 227], 'bid': 4.58}]",40108.300000190735,1669835421602,cantaloupe,yogurt no spoon,4.63,4.58,-0.04999999999999982,yogurt no spoon,1380.8999998569489,1381,1381.1999998092651,True,i,41995.700000047684,1887.3999998569489,1669835423490,1888,HRV,HRV_0233,2022-11-30 19:14:22
24,"[{'imgObject': {}, 'id': 'turkeysandwich', 'src': '/static/foodstim60/turkeysandwich.jpg', 'key': 'u', 'origWidth': 409, 'origHeight': 409, 'width': 409, 'height': 409, 'widthPercent': 0.45, 'rescaleHeight': False, 'trialN': 24, 'loaded': True, 'loadedTime': 2600.800000190735, 'positionName': 'LEFT', 'positionCoords': [328.28, 227.5], 'bid': 5.29}, {'imgObject': {}, 'id': 'bagel plain', 'src': '/static/foodstim60/bagel plain.jpg', 'key': 'i', 'origWidth': 410, 'origHeight': 410, 'width': 410, 'height': 410, 'widthPercent': 0.45, 'rescaleHeight': False, 'trialN': 24, 'loaded': True, 'loadedTime': 2666.2000000476837, 'positionName': 'RIGHT', 'positionCoords': [798.72, 227], 'bid': 6.3}]",41995.800000190735,1669835423490,turkeysandwich,bagel plain,5.29,6.3,1.0099999999999998,turkeysandwich,853.1999998092651,853,853.3999998569489,True,u,43356.10000014305,1360.2999999523163,1669835424850,1360,HRV,HRV_0233,2022-11-30 19:14:22
25,"[{'imgObject': {}, 'id': 'cantaloupe', 'src': '/static/foodstim60/cantaloupe.jpg', 'key': 'u', 'origWidth': 409, 'origHeight': 409, 'width': 409, 'height': 409, 'widthPercent': 0.45, 'rescaleHeight': False, 'trialN': 25, 'loaded': True, 'loadedTime': 2661.800000190735, 'positionName': 'LEFT', 'positionCoords': [328.28, 227.5], 'bid': 4.63}, {'imgObject': {}, 'id': 'olives', 'src': '/static/foodstim60/olives.jpg', 'key': 'i', 'origWidth': 410, 'origHeight': 410, 'width': 410, 'height': 410, 'widthPercent': 0.45, 'rescaleHeight': False, 'trialN': 25, 'loaded': True, 'loadedTime': 2667.800000190735, 'positionName': 'RIGHT', 'positionCoords': [798.72, 227], 'bid': 3.25}]",43356.300000190735,1669835424850,cantaloupe,olives,4.63,3.25,-1.38,cantaloupe,1204.5999999046326,1205,1204.7999999523163,True,u,45068.10000014305,1711.7999999523163,1669835426562,1712,HRV,HRV_0233,2022-11-30 19:14:22
26,"[{'imgObject': {}, 'id': 'blackbeanswithrice', 'src': '/static/foodstim60/blackbeanswithrice.jpg', 'key': 'u', 'origWidth': 410, 'origHeight': 410, 'width': 410, 'height': 410, 'widthPercent': 0.45, 'rescaleHeight': False, 'trialN': 26, 'loaded': True, 'loadedTime': 2658.300000190735, 'positionName': 'LEFT', 'positionCoords': [327.28, 227], 'bid': 5.84}, {'imgObject': {}, 'id': 'bagel and cc', 'src': '/static/foodstim60/bagel and cc.jpg', 'key': 'i', 'origWidth': 410, 'origHeight': 410, 'width': 410, 'height': 410, 'widthPercent': 0.45, 'rescaleHeight': False, 'trialN': 26, 'loaded': True, 'loadedTime': 2615.800000190735, 'positionName': 'RIGHT', 'positionCoords': [798.72, 227], 'bid': 6.61}]",45068.300000190735,1669835426562,blackbeanswithrice,bagel and cc,5.84,6.61,0.7700000000000005,blackbeanswithrice,732.5,733,732.7999999523163,True,u,46308.700000047684,1240.3999998569489,1669835427803,1241,HRV,HRV_0233,2022-11-30 19:14:22
27,"[{'imgObject': {}, 'id': 'hashbrowns', 'src': '/static/foodstim60/hashbrowns.jpg', 'key': 'u', 'origWidth': 411, 'origHeight': 410, 'width': 411, 'height': 410, 'widthPercent': 0.45, 'rescaleHeight': False, 'trialN': 27, 'loaded': True, 'loadedTime': 2628.2000000476837, 'positionName': 'LEFT', 'positionCoords': [326.28, 227], 'bid': 5.3500000000000005}, {'imgObject': {}, 'id': 'turkey sandwich', 'src': '/static/foodstim60/turkey sandwich.jpg', 'key': 'i', 'origWidth': 409, 'origHeight': 409, 'width': 409, 'height': 409, 'widthPercent': 0.45, 'rescaleHeight': False, 'trialN': 27, 'loaded': True, 'loadedTime': 2674, 'positionName': 'RIGHT', 'positionCoords': [798.72, 227.5], 'bid': 5.42}]",46309.0,1669835427803,hashbrowns,turkey sandwich,5.3500000000000005,5.42,0.0699999999999994,turkey sandwich,756.5,757,756.8000001907349,True,i,47572.60000014305,1263.6000001430511,1669835429067,1264,HRV,HRV_0233,2022-11-30 19:14:22
28,"[{'imgObject': {}, 'id': 'edamame', 'src': '/static/foodstim60/edamame.jpg', 'key': 'u', 'origWidth': 409, 'origHeight': 410, 'width': 409, 'height': 410, 'widthPercent': 0.45, 'rescaleHeight': False, 'trialN': 28, 'loaded': True, 'loadedTime': 2657.100000143051, 'positionName': 'LEFT', 'positionCoords': [328.28, 227], 'bid': 1.86}, {'imgObject': {}, 'id': 'yogurt no spoon', 'src': '/static/foodstim60/yogurt no spoon.jpg', 'key': 'i', 'origWidth': 411, 'origHeight': 410, 'width': 411, 'height': 410, 'widthPercent': 0.45, 'rescaleHeight': False, 'trialN': 28, 'loaded': True, 'loadedTime': 2662.7000000476837, 'positionName': 'RIGHT', 'positionCoords': [798.72, 227], 'bid': 4.58}]",47572.90000009537,1669835429067,edamame,yogurt no spoon,1.86,4.58,2.7199999999999998,yogurt no spoon,668.2000000476837,668,668.5999999046326,True,i,48747.800000190735,1174.9000000953674,1669835430242,1175,HRV,HRV_0233,2022-11-30 19:14:22
29,"[{'imgObject': {}, 'id': 'pear', 'src': '/static/foodstim60/pear.jpg', 'key': 'u', 'origWidth': 411, 'origHeight': 410, 'width': 411, 'height': 410, 'widthPercent': 0.45, 'rescaleHeight': False, 'trialN': 29, 'loaded': True, 'loadedTime': 2653.2000000476837, 'positionName': 'LEFT', 'positionCoords': [326.28, 227], 'bid': 4.21}, {'imgObject': {}, 'id': 'veggieswithdip', 'src': '/static/foodstim60/veggieswithdip.jpg', 'key': 'i', 'origWidth': 409, 'origHeight': 409, 'width': 409, 'height': 409, 'widthPercent': 0.45, 'rescaleHeight': False, 'trialN': 29, 'loaded': True, 'loadedTime': 2676.600000143051, 'positionName': 'RIGHT', 'positionCoords': [798.72, 227.5], 'bid': 4.72}]",48747.90000009537,1669835430242,pear,veggieswithdip,4.21,4.72,0.5099999999999998,veggieswithdip,1125.2000000476837,1125,1125.5,True,i,50380.60000014305,1632.7000000476837,1669835431875,1633,HRV,HRV_0233,2022-11-30 19:14:22
30,"[{'imgObject': {}, 'id': 'froot loops w milk', 'src': '/static/foodstim60/froot loops w milk.jpg', 'key': 'u', 'origWidth': 410, 'origHeight': 410, 'width': 410, 'height': 410, 'widthPercent': 0.45, 'rescaleHeight': False, 'trialN': 30, 'loaded': True, 'loadedTime': 2632, 'positionName': 'LEFT', 'positionCoords': [327.28, 227], 'bid': 5.29}, {'imgObject': {}, 'id': 'yogurt no spoon', 'src': '/static/foodstim60/yogurt no spoon.jpg', 'key': 'i', 'origWidth': 411, 'origHeight': 410, 'width': 411, 'height': 410, 'widthPercent': 0.45, 'rescaleHeight': False, 'trialN': 30, 'loaded': True, 'loadedTime': 2662.600000143051, 'positionName': 'RIGHT', 'positionCoords': [798.72, 227], 'bid': 4.58}]",50380.800000190735,1669835431875,froot loops w milk,yogurt no spoon,5.29,4.58,-0.71,yogurt no spoon,852.1999998092651,852,852.5,True,i,51739.90000009537,1359.0999999046326,1669835433234,1359,HRV,HRV_0233,2022-11-30 19:14:22
31,"[{'imgObject': {}, 'id': 'omelette', 'src': '/static/foodstim60/omelette.jpg', 'key': 'u', 'origWidth': 410, 'origHeight': 409, 'width': 410, 'height': 409, 'widthPercent': 0.45, 'rescaleHeight': False, 'trialN': 31, 'loaded': True, 'loadedTime': 2598.5, 'positionName': 'LEFT', 'positionCoords': [327.28, 227.5], 'bid': 5.5200000000000005}, {'imgObject': {}, 'id': 'raspberries', 'src': '/static/foodstim60/raspberries.jpg', 'key': 'i', 'origWidth': 411, 'origHeight': 411, 'width': 411, 'height': 411, 'widthPercent': 0.45, 'rescaleHeight': False, 'trialN': 31, 'loaded': True, 'loadedTime': 2678.600000143051, 'positionName': 'RIGHT', 'positionCoords': [798.72, 226.5], 'bid': 5.48}]",51740.0,1669835433234,omelette,raspberries,5.5200000000000005,5.48,-0.040000000000000036,omelette,748.7000000476837,749,749.1000001430511,True,u,52996.10000014305,1256.1000001430511,1669835434490,1256,HRV,HRV_0233,2022-11-30 19:14:22
32,"[{'imgObject': {}, 'id': 'eggs', 'src': '/static/foodstim60/eggs.jpg', 'key': 'u', 'origWidth': 409, 'origHeight': 409, 'width': 409, 'height': 409, 'widthPercent': 0.45, 'rescaleHeight': False, 'trialN': 32, 'loaded': True, 'loadedTime': 2680.5, 'positionName': 'LEFT', 'positionCoords': [328.28, 227.5], 'bid': 5.69}, {'imgObject': {}, 'id': 'rigatoni and sauce', 'src': '/static/foodstim60/rigatoni and sauce.jpg', 'key': 'i', 'origWidth': 410, 'origHeight': 411, 'width': 410, 'height': 411, 'widthPercent': 0.45, 'rescaleHeight': False, 'trialN': 32, 'loaded': True, 'loadedTime': 2597.300000190735, 'positionName': 'RIGHT', 'positionCoords': [798.72, 226.5], 'bid': 5.79}]",52996.300000190735,1669835434490,eggs,rigatoni and sauce,5.69,5.79,0.09999999999999964,rigatoni and sauce,868.5,869,868.7999999523163,True,i,54371.700000047684,1375.3999998569489,1669835435866,1376,HRV,HRV_0233,2022-11-30 19:14:22
33,"[{'imgObject': {}, 'id': 'turkeysandwich', 'src': '/static/foodstim60/turkeysandwich.jpg', 'key': 'u', 'origWidth': 409, 'origHeight': 409, 'width': 409, 'height': 409, 'widthPercent': 0.45, 'rescaleHeight': False, 'trialN': 33, 'loaded': True, 'loadedTime': 2600.9000000953674, 'positionName': 'LEFT', 'positionCoords': [328.28, 227.5], 'bid': 5.29}, {'imgObject': {}, 'id': 'cantaloupe', 'src': '/static/foodstim60/cantaloupe.jpg', 'key': 'i', 'origWidth': 409, 'origHeight': 409, 'width': 409, 'height': 409, 'widthPercent': 0.45, 'rescaleHeight': False, 'trialN': 33, 'loaded': True, 'loadedTime': 2661.7000000476837, 'positionName': 'RIGHT', 'positionCoords': [798.72, 227.5], 'bid': 4.63}]",54371.800000190735,1669835435866,turkeysandwich,cantaloupe,5.29,4.63,-0.6600000000000001,turkeysandwich,669.1999998092651,669,669.5999999046326,True,u,55548.40000009537,1176.5999999046326,1669835437042,1176,HRV,HRV_0233,2022-11-30 19:14:22
34,"[{'imgObject': {}, 'id': 'granola w milk', 'src': '/static/foodstim60/granola w milk.jpg', 'key': 'u', 'origWidth': 410, 'origHeight': 410, 'width': 410, 'height': 410, 'widthPercent': 0.45, 'rescaleHeight': False, 'trialN': 34, 'loaded': True, 'loadedTime': 2591.9000000953674, 'positionName': 'LEFT', 'positionCoords': [327.28, 227], 'bid': 5.2700000000000005}, {'imgObject': {}, 'id': 'chickenfingers', 'src': '/static/foodstim60/chickenfingers.jpg', 'key': 'i', 'origWidth': 410, 'origHeight': 410, 'width': 410, 'height': 410, 'widthPercent': 0.45, 'rescaleHeight': False, 'trialN': 34, 'loaded': True, 'loadedTime': 2592.4000000953674, 'positionName': 'RIGHT', 'positionCoords': [798.72, 227], 'bid': 6.09}]",55548.5,1669835437042,granola w milk,chickenfingers,5.2700000000000005,6.09,0.8199999999999994,chickenfingers,757.2000000476837,758,757.3000001907349,True,i,56811.800000190735,1263.3000001907349,1669835438306,1264,HRV,HRV_0233,2022-11-30 19:14:22
35,"[{'imgObject': {}, 'id': 'tacos', 'src': '/static/foodstim60/tacos.jpg', 'key': 'u', 'origWidth': 411, 'origHeight': 411, 'width': 411, 'height': 411, 'widthPercent': 0.45, 'rescaleHeight': False, 'trialN': 35, 'loaded': True, 'loadedTime': 2681.7000000476837, 'positionName': 'LEFT', 'positionCoords': [326.28, 226.5], 'bid': 5.24}, {'imgObject': {}, 'id': 'grilled chicken strips', 'src': '/static/foodstim60/grilled chicken strips.jpg', 'key': 'i', 'origWidth': 410, 'origHeight': 411, 'width': 410, 'height': 411, 'widthPercent': 0.45, 'rescaleHeight': False, 'trialN': 35, 'loaded': True, 'loadedTime': 2683.7000000476837, 'positionName': 'RIGHT', 'positionCoords': [798.72, 226.5], 'bid': 5.13}]",56812.0,1669835438306,tacos,grilled chicken strips,5.24,5.13,-0.11000000000000032,grilled chicken strips,1765.0,1765,1765.3000001907349,True,i,59084.5,2272.5,1669835440578,2272,HRV,HRV_0233,2022-11-30 19:14:22
36,"[{'imgObject': {}, 'id': 'salad w chicken', 'src': '/static/foodstim60/salad w chicken.jpg', 'key': 'u', 'origWidth': 411, 'origHeight': 411, 'width': 411, 'height': 411, 'widthPercent': 0.45, 'rescaleHeight': False, 'trialN': 36, 'loaded': True, 'loadedTime': 2685.100000143051, 'positionName': 'LEFT', 'positionCoords': [326.28, 226.5], 'bid': 5.97}, {'imgObject': {}, 'id': 'raisin bran w milk', 'src': '/static/foodstim60/raisin bran w milk.jpg', 'key': 'i', 'origWidth': 411, 'origHeight': 411, 'width': 411, 'height': 411, 'widthPercent': 0.45, 'rescaleHeight': False, 'trialN': 36, 'loaded': True, 'loadedTime': 2686.100000143051, 'positionName': 'RIGHT', 'positionCoords': [798.72, 226.5], 'bid': 5.98}]",59084.60000014305,1669835440579,salad w chicken,raisin bran w milk,5.97,5.98,0.010000000000000675,salad w chicken,676.2000000476837,676,676.5999999046326,True,u,60267.700000047684,1183.0999999046326,1669835441762,1183,HRV,HRV_0233,2022-11-30 19:14:22
37,"[{'imgObject': {}, 'id': 'baked potato', 'src': '/static/foodstim60/baked potato.jpg', 'key': 'u', 'origWidth': 409, 'origHeight': 410, 'width': 409, 'height': 410, 'widthPercent': 0.45, 'rescaleHeight': False, 'trialN': 37, 'loaded': True, 'loadedTime': 2636.2000000476837, 'positionName': 'LEFT', 'positionCoords': [328.28, 227], 'bid': 5.44}, {'imgObject': {}, 'id': 'lox', 'src': '/static/foodstim60/lox.jpg', 'key': 'i', 'origWidth': 410, 'origHeight': 411, 'width': 410, 'height': 411, 'widthPercent': 0.45, 'rescaleHeight': False, 'trialN': 37, 'loaded': True, 'loadedTime': 2633.100000143051, 'positionName': 'RIGHT', 'positionCoords': [798.72, 226.5], 'bid': 5}]",60267.800000190735,1669835441762,baked potato,lox,5.44,5.0,-0.4400000000000004,baked potato,957.0999999046326,957,957.3999998569489,True,u,61732.300000190735,1464.5,1669835443226,1464,HRV,HRV_0233,2022-11-30 19:14:22
38,"[{'imgObject': {}, 'id': 'ice cream sundae 002', 'src': '/static/foodstim60/ice cream sundae 002.jpg', 'key': 'u', 'origWidth': 409, 'origHeight': 409, 'width': 409, 'height': 409, 'widthPercent': 0.45, 'rescaleHeight': False, 'trialN': 38, 'loaded': True, 'loadedTime': 2687.2000000476837, 'positionName': 'LEFT', 'positionCoords': [328.28, 227.5], 'bid': 6.3500000000000005}, {'imgObject': {}, 'id': 'hashbrowns', 'src': '/static/foodstim60/hashbrowns.jpg', 'key': 'i', 'origWidth': 411, 'origHeight': 410, 'width': 411, 'height': 410, 'widthPercent': 0.45, 'rescaleHeight': False, 'trialN': 38, 'loaded': True, 'loadedTime': 2627.800000190735, 'positionName': 'RIGHT', 'positionCoords': [798.72, 227], 'bid': 5.3500000000000005}]",61732.40000009537,1669835443226,ice cream sundae 002,hashbrowns,6.3500000000000005,5.3500000000000005,-1.0,ice cream sundae 002,1180.0999999046326,1181,1180.4000000953674,True,u,63421.10000014305,1688.7000000476837,1669835444915,1689,HRV,HRV_0233,2022-11-30 19:14:22
39,"[{'imgObject': {}, 'id': 'yogurt no spoon', 'src': '/static/foodstim60/yogurt no spoon.jpg', 'key': 'u', 'origWidth': 411, 'origHeight': 410, 'width': 411, 'height': 410, 'widthPercent': 0.45, 'rescaleHeight': False, 'trialN': 39, 'loaded': True, 'loadedTime': 2662.600000143051, 'positionName': 'LEFT', 'positionCoords': [326.28, 227], 'bid': 4.58}, {'imgObject': {}, 'id': 'sweetpotato', 'src': '/static/foodstim60/sweetpotato.jpg', 'key': 'i', 'origWidth': 410, 'origHeight': 410, 'width': 410, 'height': 410, 'widthPercent': 0.45, 'rescaleHeight': False, 'trialN': 39, 'loaded': True, 'loadedTime': 2688.800000190735, 'positionName': 'RIGHT', 'positionCoords': [798.72, 227], 'bid': 4.28}]",63421.300000190735,1669835444915,yogurt no spoon,sweetpotato,4.58,4.28,-0.2999999999999998,sweetpotato,1523.7999999523163,1524,1524.0999999046326,True,i,65452.0,2030.6999998092651,1669835446946,2031,HRV,HRV_0233,2022-11-30 19:14:22
40,"[{'imgObject': {}, 'id': 'ice cream sundae 002', 'src': '/static/foodstim60/ice cream sundae 002.jpg', 'key': 'u', 'origWidth': 409, 'origHeight': 409, 'width': 409, 'height': 409, 'widthPercent': 0.45, 'rescaleHeight': False, 'trialN': 40, 'loaded': True, 'loadedTime': 2687.300000190735, 'positionName': 'LEFT', 'positionCoords': [328.28, 227.5], 'bid': 6.3500000000000005}, {'imgObject': {}, 'id': 'mango', 'src': '/static/foodstim60/mango.jpg', 'key': 'i', 'origWidth': 411, 'origHeight': 411, 'width': 411, 'height': 411, 'widthPercent': 0.45, 'rescaleHeight': False, 'trialN': 40, 'loaded': True, 'loadedTime': 2689.7000000476837, 'positionName': 'RIGHT', 'positionCoords': [798.72, 226.5], 'bid': 6.3}]",65452.10000014305,1669835446946,ice cream sundae 002,mango,6.3500000000000005,6.3,-0.05000000000000071,mango,1373.0999999046326,1373,1373.2999999523163,True,i,67331.5,1879.3999998569489,1669835448826,1880,HRV,HRV_0233,2022-11-30 19:14:22
41,"[{'imgObject': {}, 'id': 'turkey sandwich', 'src': '/static/foodstim60/turkey sandwich.jpg', 'key': 'u', 'origWidth': 409, 'origHeight': 409, 'width': 409, 'height': 409, 'widthPercent': 0.45, 'rescaleHeight': False, 'trialN': 41, 'loaded': True, 'loadedTime': 2674.600000143051, 'positionName': 'LEFT', 'positionCoords': [328.28, 227.5], 'bid': 5.42}, {'imgObject': {}, 'id': 'rigatoni', 'src': '/static/foodstim60/rigatoni.jpg', 'key': 'i', 'origWidth': 411, 'origHeight': 411, 'width': 411, 'height': 411, 'widthPercent': 0.45, 'rescaleHeight': False, 'trialN': 41, 'loaded': True, 'loadedTime': 2690.300000190735, 'positionName': 'RIGHT', 'positionCoords': [798.72, 226.5], 'bid': 4.94}]",67331.70000004768,1669835448826,turkey sandwich,rigatoni,5.42,4.94,-0.47999999999999954,turkey sandwich,925.2999999523163,925,925.5,True,u,68764.60000014305,1432.9000000953674,1669835450259,1433,HRV,HRV_0233,2022-11-30 19:14:22
42,"[{'imgObject': {}, 'id': 'yogurt no spoon', 'src': '/static/foodstim60/yogurt no spoon.jpg', 'key': 'u', 'origWidth': 411, 'origHeight': 410, 'width': 411, 'height': 410, 'widthPercent': 0.45, 'rescaleHeight': False, 'trialN': 42, 'loaded': True, 'loadedTime': 2662.600000143051, 'positionName': 'LEFT', 'positionCoords': [326.28, 227], 'bid': 4.58}, {'imgObject': {}, 'id': 'mashed potato', 'src': '/static/foodstim60/mashed potato.jpg', 'key': 'i', 'origWidth': 409, 'origHeight': 409, 'width': 409, 'height': 409, 'widthPercent': 0.45, 'rescaleHeight': False, 'trialN': 42, 'loaded': True, 'loadedTime': 2691.100000143051, 'positionName': 'RIGHT', 'positionCoords': [798.72, 227.5], 'bid': 5.0200000000000005}]",68764.80000019073,1669835450259,yogurt no spoon,mashed potato,4.58,5.0200000000000005,0.4400000000000004,yogurt no spoon,1740.1999998092651,1740,1740.5,True,u,71012.0,2247.199999809265,1669835452506,2247,HRV,HRV_0233,2022-11-30 19:14:22
43,"[{'imgObject': {}, 'id': 'hotdog w must', 'src': '/static/foodstim60/hotdog w must.jpg', 'key': 'u', 'origWidth': 409, 'origHeight': 409, 'width': 409, 'height': 409, 'widthPercent': 0.45, 'rescaleHeight': False, 'trialN': 43, 'loaded': True, 'loadedTime': 2691.300000190735, 'positionName': 'LEFT', 'positionCoords': [328.28, 227.5], 'bid': 5.03}, {'imgObject': {}, 'id': 'tacos', 'src': '/static/foodstim60/tacos.jpg', 'key': 'i', 'origWidth': 411, 'origHeight': 411, 'width': 411, 'height': 411, 'widthPercent': 0.45, 'rescaleHeight': False, 'trialN': 43, 'loaded': True, 'loadedTime': 2680.5, 'positionName': 'RIGHT', 'positionCoords': [798.72, 226.5], 'bid': 5.24}]",71012.0,1669835452506,hotdog w must,tacos,5.03,5.24,0.20999999999999996,tacos,2028.9000000953674,2029,2029.1000001430511,True,i,73547.90000009537,2535.9000000953674,1669835455042,2536,HRV,HRV_0233,2022-11-30 19:14:22
44,"[{'imgObject': {}, 'id': 'salad w chicken', 'src': '/static/foodstim60/salad w chicken.jpg', 'key': 'u', 'origWidth': 411, 'origHeight': 411, 'width': 411, 'height': 411, 'widthPercent': 0.45, 'rescaleHeight': False, 'trialN': 44, 'loaded': True, 'loadedTime': 2684.800000190735, 'positionName': 'LEFT', 'positionCoords': [326.28, 226.5], 'bid': 5.97}, {'imgObject': {}, 'id': 'chickenfingers', 'src': '/static/foodstim60/chickenfingers.jpg', 'key': 'i', 'origWidth': 410, 'origHeight': 410, 'width': 410, 'height': 410, 'widthPercent': 0.45, 'rescaleHeight': False, 'trialN': 44, 'loaded': True, 'loadedTime': 2593.4000000953674, 'positionName': 'RIGHT', 'positionCoords': [798.72, 227], 'bid': 6.09}]",73548.10000014305,1669835455042,salad w chicken,chickenfingers,5.97,6.09,0.1200000000000001,salad w chicken,1308.7999999523163,1309,1309.0999999046326,True,u,75364.30000019073,1816.2000000476837,1669835456858,1816,HRV,HRV_0233,2022-11-30 19:14:22
45,"[{'imgObject': {}, 'id': 'banana', 'src': '/static/foodstim60/banana.jpg', 'key': 'u', 'origWidth': 410, 'origHeight': 410, 'width': 410, 'height': 410, 'widthPercent': 0.45, 'rescaleHeight': False, 'trialN': 45, 'loaded': True, 'loadedTime': 2636, 'positionName': 'LEFT', 'positionCoords': [327.28, 227], 'bid': 5.01}, {'imgObject': {}, 'id': 'edamame', 'src': '/static/foodstim60/edamame.jpg', 'key': 'i', 'origWidth': 409, 'origHeight': 410, 'width': 409, 'height': 410, 'widthPercent': 0.45, 'rescaleHeight': False, 'trialN': 45, 'loaded': True, 'loadedTime': 2657.300000190735, 'positionName': 'RIGHT', 'positionCoords': [798.72, 227], 'bid': 1.86}]",75364.30000019073,1669835456858,banana,edamame,5.01,1.86,-3.1499999999999995,banana,876.7999999523163,877,877.0999999046326,True,u,76748.5,1384.1999998092651,1669835458242,1384,HRV,HRV_0233,2022-11-30 19:14:22
46,"[{'imgObject': {}, 'id': 'fruitsalad', 'src': '/static/foodstim60/fruitsalad.jpg', 'key': 'u', 'origWidth': 410, 'origHeight': 410, 'width': 410, 'height': 410, 'widthPercent': 0.45, 'rescaleHeight': False, 'trialN': 46, 'loaded': True, 'loadedTime': 2648.5, 'positionName': 'LEFT', 'positionCoords': [327.28, 227], 'bid': 7.74}, {'imgObject': {}, 'id': 'steak', 'src': '/static/foodstim60/steak.jpg', 'key': 'i', 'origWidth': 410, 'origHeight': 410, 'width': 410, 'height': 410, 'widthPercent': 0.45, 'rescaleHeight': False, 'trialN': 46, 'loaded': True, 'loadedTime': 2626.9000000953674, 'positionName': 'RIGHT', 'positionCoords': [798.72, 227], 'bid': 7.3}]",76748.60000014305,1669835458243,fruitsalad,steak,7.74,7.3,-0.4400000000000004,steak,628.3999998569489,628,628.7000000476837,True,i,77885.0,1136.3999998569489,1669835459379,1136,HRV,HRV_0233,2022-11-30 19:14:22
47,"[{'imgObject': {}, 'id': 'veggieswithdip', 'src': '/static/foodstim60/veggieswithdip.jpg', 'key': 'u', 'origWidth': 409, 'origHeight': 409, 'width': 409, 'height': 409, 'widthPercent': 0.45, 'rescaleHeight': False, 'trialN': 47, 'loaded': True, 'loadedTime': 2675, 'positionName': 'LEFT', 'positionCoords': [328.28, 227.5], 'bid': 4.72}, {'imgObject': {}, 'id': 'luckycharms', 'src': '/static/foodstim60/luckycharms.jpg', 'key': 'i', 'origWidth': 410, 'origHeight': 409, 'width': 410, 'height': 409, 'widthPercent': 0.45, 'rescaleHeight': False, 'trialN': 47, 'loaded': True, 'loadedTime': 2693, 'positionName': 'RIGHT', 'positionCoords': [798.72, 227.5], 'bid': 4.94}]",77885.20000004768,1669835459379,veggieswithdip,luckycharms,4.72,4.94,0.22000000000000064,veggieswithdip,2435.7000000476837,2436,2436.0,True,u,80828.30000019073,2943.100000143051,1669835462322,2943,HRV,HRV_0233,2022-11-30 19:14:22
48,"[{'imgObject': {}, 'id': 'froot loops w milk', 'src': '/static/foodstim60/froot loops w milk.jpg', 'key': 'u', 'origWidth': 410, 'origHeight': 410, 'width': 410, 'height': 410, 'widthPercent': 0.45, 'rescaleHeight': False, 'trialN': 48, 'loaded': True, 'loadedTime': 2631.9000000953674, 'positionName': 'LEFT', 'positionCoords': [327.28, 227], 'bid': 5.29}, {'imgObject': {}, 'id': 'omelette', 'src': '/static/foodstim60/omelette.jpg', 'key': 'i', 'origWidth': 410, 'origHeight': 409, 'width': 410, 'height': 409, 'widthPercent': 0.45, 'rescaleHeight': False, 'trialN': 48, 'loaded': True, 'loadedTime': 2598.4000000953674, 'positionName': 'RIGHT', 'positionCoords': [798.72, 227.5], 'bid': 5.5200000000000005}]",80828.40000009537,1669835462322,froot loops w milk,omelette,5.29,5.5200000000000005,0.23000000000000043,omelette,1052.7000000476837,1053,1052.9000000953674,True,i,82387.60000014305,1559.2000000476837,1669835463882,1560,HRV,HRV_0233,2022-11-30 19:14:22
49,"[{'imgObject': {}, 'id': 'mac & cheese', 'src': '/static/foodstim60/mac & cheese.jpg', 'key': 'u', 'origWidth': 410, 'origHeight': 410, 'width': 410, 'height': 410, 'widthPercent': 0.45, 'rescaleHeight': False, 'trialN': 49, 'loaded': True, 'loadedTime': 2658.100000143051, 'positionName': 'LEFT', 'positionCoords': [327.28, 227], 'bid': 5.32}, {'imgObject': {}, 'id': 'cocktailshrimp', 'src': '/static/foodstim60/cocktailshrimp.jpg', 'key': 'i', 'origWidth': 410, 'origHeight': 410, 'width': 410, 'height': 410, 'widthPercent': 0.45, 'rescaleHeight': False, 'trialN': 49, 'loaded': True, 'loadedTime': 2599.7000000476837, 'positionName': 'RIGHT', 'positionCoords': [798.72, 227], 'bid': 5.5}]",82387.80000019073,1669835463882,mac & cheese,cocktailshrimp,5.32,5.5,0.17999999999999972,cocktailshrimp,1029.6999998092651,1030,1030.0,True,i,83923.80000019073,1536.0,1669835465418,1536,HRV,HRV_0233,2022-11-30 19:14:22
50,"[{'imgObject': {}, 'id': 'burrito', 'src': '/static/foodstim60/burrito.jpg', 'key': 'u', 'origWidth': 410, 'origHeight': 410, 'width': 410, 'height': 410, 'widthPercent': 0.45, 'rescaleHeight': False, 'trialN': 50, 'loaded': True, 'loadedTime': 2595.100000143051, 'positionName': 'LEFT', 'positionCoords': [327.28, 227], 'bid': 5.72}, {'imgObject': {}, 'id': 'sushi w_condiments', 'src': '/static/foodstim60/sushi w_condiments.jpg', 'key': 'i', 'origWidth': 410, 'origHeight': 410, 'width': 410, 'height': 410, 'widthPercent': 0.45, 'rescaleHeight': False, 'trialN': 50, 'loaded': True, 'loadedTime': 2693.800000190735, 'positionName': 'RIGHT', 'positionCoords': [798.72, 227], 'bid': 5.72}]",83924.0,1669835465418,burrito,sushi w_condiments,5.72,5.72,0.0,burrito,1316.9000000953674,1317,1317.2000000476837,True,u,85748.40000009537,1824.4000000953674,1669835467242,1824,HRV,HRV_0233,2022-11-30 19:14:22
51,"[{'imgObject': {}, 'id': 'Grapes', 'src': '/static/foodstim60/Grapes.jpg', 'key': 'u', 'origWidth': 411, 'origHeight': 411, 'width': 411, 'height': 411, 'widthPercent': 0.45, 'rescaleHeight': False, 'trialN': 51, 'loaded': True, 'loadedTime': 2651.100000143051, 'positionName': 'LEFT', 'positionCoords': [326.28, 226.5], 'bid': 7.63}, {'imgObject': {}, 'id': 'salad w chicken', 'src': '/static/foodstim60/salad w chicken.jpg', 'key': 'i', 'origWidth': 411, 'origHeight': 411, 'width': 411, 'height': 411, 'widthPercent': 0.45, 'rescaleHeight': False, 'trialN': 51, 'loaded': True, 'loadedTime': 2684.7000000476837, 'positionName': 'RIGHT', 'positionCoords': [798.72, 226.5], 'bid': 5.97}]",85748.60000014305,1669835467243,Grapes,salad w chicken,7.63,5.97,-1.6600000000000001,salad w chicken,1708.5,1708,1708.7999999523163,True,i,87965.10000014305,2216.5,1669835469459,2216,HRV,HRV_0233,2022-11-30 19:14:22
52,"[{'imgObject': {}, 'id': 'cantaloupe', 'src': '/static/foodstim60/cantaloupe.jpg', 'key': 'u', 'origWidth': 409, 'origHeight': 409, 'width': 409, 'height': 409, 'widthPercent': 0.45, 'rescaleHeight': False, 'trialN': 52, 'loaded': True, 'loadedTime': 2662, 'positionName': 'LEFT', 'positionCoords': [328.28, 227.5], 'bid': 4.63}, {'imgObject': {}, 'id': 'hotdog w must', 'src': '/static/foodstim60/hotdog w must.jpg', 'key': 'i', 'origWidth': 409, 'origHeight': 409, 'width': 409, 'height': 409, 'widthPercent': 0.45, 'rescaleHeight': False, 'trialN': 52, 'loaded': True, 'loadedTime': 2692.2000000476837, 'positionName': 'RIGHT', 'positionCoords': [798.72, 227.5], 'bid': 5.03}]",87965.10000014305,1669835469459,cantaloupe,hotdog w must,4.63,5.03,0.40000000000000036,cantaloupe,915.5,916,915.8999998569489,True,u,89388.90000009537,1423.7999999523163,1669835470883,1424,HRV,HRV_0233,2022-11-30 19:14:22
53,"[{'imgObject': {}, 'id': 'hotdog w must', 'src': '/static/foodstim60/hotdog w must.jpg', 'key': 'u', 'origWidth': 409, 'origHeight': 409, 'width': 409, 'height': 409, 'widthPercent': 0.45, 'rescaleHeight': False, 'trialN': 53, 'loaded': True, 'loadedTime': 2692, 'positionName': 'LEFT', 'positionCoords': [328.28, 227.5], 'bid': 5.03}, {'imgObject': {}, 'id': 'corn cob', 'src': '/static/foodstim60/corn cob.jpg', 'key': 'i', 'origWidth': 411, 'origHeight': 411, 'width': 411, 'height': 411, 'widthPercent': 0.45, 'rescaleHeight': False, 'trialN': 53, 'loaded': True, 'loadedTime': 2608.5, 'positionName': 'RIGHT', 'positionCoords': [798.72, 226.5], 'bid': 5.3100000000000005}]",89388.90000009537,1669835470883,hotdog w must,corn cob,5.03,5.3100000000000005,0.28000000000000025,hotdog w must,1476.0,1476,1476.2999999523163,True,u,91371.80000019073,1982.9000000953674,1669835472866,1983,HRV,HRV_0233,2022-11-30 19:14:22
54,"[{'imgObject': {}, 'id': 'kiwi', 'src': '/static/foodstim60/kiwi.jpg', 'key': 'u', 'origWidth': 410, 'origHeight': 410, 'width': 410, 'height': 410, 'widthPercent': 0.45, 'rescaleHeight': False, 'trialN': 54, 'loaded': True, 'loadedTime': 2694.600000143051, 'positionName': 'LEFT', 'positionCoords': [327.28, 227], 'bid': 5.78}, {'imgObject': {}, 'id': 'Grapes', 'src': '/static/foodstim60/Grapes.jpg', 'key': 'i', 'origWidth': 411, 'origHeight': 411, 'width': 411, 'height': 411, 'widthPercent': 0.45, 'rescaleHeight': False, 'trialN': 54, 'loaded': True, 'loadedTime': 2650.7000000476837, 'positionName': 'RIGHT', 'positionCoords': [798.72, 226.5], 'bid': 7.63}]",91371.90000009537,1669835472866,kiwi,Grapes,5.78,7.63,1.8499999999999996,Grapes,981.0999999046326,981,981.4000000953674,True,i,92860.40000009537,1488.5,1669835474354,1488,HRV,HRV_0233,2022-11-30 19:14:22
55,"[{'imgObject': {}, 'id': 'banana', 'src': '/static/foodstim60/banana.jpg', 'key': 'u', 'origWidth': 410, 'origHeight': 410, 'width': 410, 'height': 410, 'widthPercent': 0.45, 'rescaleHeight': False, 'trialN': 55, 'loaded': True, 'loadedTime': 2636, 'positionName': 'LEFT', 'positionCoords': [327.28, 227], 'bid': 5.01}, {'imgObject': {}, 'id': 'rigatoni and sauce', 'src': '/static/foodstim60/rigatoni and sauce.jpg', 'key': 'i', 'origWidth': 410, 'origHeight': 411, 'width': 410, 'height': 411, 'widthPercent': 0.45, 'rescaleHeight': False, 'trialN': 55, 'loaded': True, 'loadedTime': 2597.5, 'positionName': 'RIGHT', 'positionCoords': [798.72, 226.5], 'bid': 5.79}]",92860.60000014305,1669835474355,banana,rigatoni and sauce,5.01,5.79,0.7800000000000002,banana,1940.3999998569489,1940,1940.5999999046326,True,u,95308.90000009537,2448.2999999523163,1669835476803,2448,HRV,HRV_0233,2022-11-30 19:14:22
56,"[{'imgObject': {}, 'id': 'cherries', 'src': '/static/foodstim60/cherries.jpg', 'key': 'u', 'origWidth': 410, 'origHeight': 411, 'width': 410, 'height': 411, 'widthPercent': 0.45, 'rescaleHeight': False, 'trialN': 56, 'loaded': True, 'loadedTime': 2660, 'positionName': 'LEFT', 'positionCoords': [327.28, 226.5], 'bid': 5.39}, {'imgObject': {}, 'id': 'bagel and cc', 'src': '/static/foodstim60/bagel and cc.jpg', 'key': 'i', 'origWidth': 410, 'origHeight': 410, 'width': 410, 'height': 410, 'widthPercent': 0.45, 'rescaleHeight': False, 'trialN': 56, 'loaded': True, 'loadedTime': 2615.300000190735, 'positionName': 'RIGHT', 'positionCoords': [798.72, 227], 'bid': 6.61}]",95309.10000014305,1669835476803,cherries,bagel and cc,5.39,6.61,1.2200000000000006,cherries,859.7000000476837,860,860.0999999046326,True,u,96676.40000009537,1367.2999999523163,1669835478170,1367,HRV,HRV_0233,2022-11-30 19:14:22
57,"[{'imgObject': {}, 'id': 'ice cream sundae 002', 'src': '/static/foodstim60/ice cream sundae 002.jpg', 'key': 'u', 'origWidth': 409, 'origHeight': 409, 'width': 409, 'height': 409, 'widthPercent': 0.45, 'rescaleHeight': False, 'trialN': 57, 'loaded': True, 'loadedTime': 2687.4000000953674, 'positionName': 'LEFT', 'positionCoords': [328.28, 227.5], 'bid': 6.3500000000000005}, {'imgObject': {}, 'id': 'rigatoni and sauce', 'src': '/static/foodstim60/rigatoni and sauce.jpg', 'key': 'i', 'origWidth': 410, 'origHeight': 411, 'width': 410, 'height': 411, 'widthPercent': 0.45, 'rescaleHeight': False, 'trialN': 57, 'loaded': True, 'loadedTime': 2596.300000190735, 'positionName': 'RIGHT', 'positionCoords': [798.72, 226.5], 'bid': 5.79}]",96676.5,1669835478170,ice cream sundae 002,rigatoni and sauce,6.3500000000000005,5.79,-0.5600000000000005,ice cream sundae 002,2932.4000000953674,2933,2932.7000000476837,True,u,100109.80000019073,3433.300000190735,1669835481604,3434,HRV,HRV_0233,2022-11-30 19:14:22
58,"[{'imgObject': {}, 'id': 'mac & cheese', 'src': '/static/foodstim60/mac & cheese.jpg', 'key': 'u', 'origWidth': 410, 'origHeight': 410, 'width': 410, 'height': 410, 'widthPercent': 0.45, 'rescaleHeight': False, 'trialN': 58, 'loaded': True, 'loadedTime': 2658.300000190735, 'positionName': 'LEFT', 'positionCoords': [327.28, 227], 'bid': 5.32}, {'imgObject': {}, 'id': 'fried eggs', 'src': '/static/foodstim60/fried eggs.jpg', 'key': 'i', 'origWidth': 410, 'origHeight': 410, 'width': 410, 'height': 410, 'widthPercent': 0.45, 'rescaleHeight': False, 'trialN': 58, 'loaded': True, 'loadedTime': 2642.2000000476837, 'positionName': 'RIGHT', 'positionCoords': [798.72, 227], 'bid': 5.58}]",100110.0,1669835481604,mac & cheese,fried eggs,5.32,5.58,0.2599999999999998,mac & cheese,2250.9000000953674,2251,2251.4000000953674,True,u,102867.70000004768,2757.7000000476837,1669835484362,2758,HRV,HRV_0233,2022-11-30 19:14:22
59,"[{'imgObject': {}, 'id': 'raisin bran w milk', 'src': '/static/foodstim60/raisin bran w milk.jpg', 'key': 'u', 'origWidth': 411, 'origHeight': 411, 'width': 411, 'height': 411, 'widthPercent': 0.45, 'rescaleHeight': False, 'trialN': 59, 'loaded': True, 'loadedTime': 2686.2000000476837, 'positionName': 'LEFT', 'positionCoords': [326.28, 226.5], 'bid': 5.98}, {'imgObject': {}, 'id': 'fruitsalad', 'src': '/static/foodstim60/fruitsalad.jpg', 'key': 'i', 'origWidth': 410, 'origHeight': 410, 'width': 410, 'height': 410, 'widthPercent': 0.45, 'rescaleHeight': False, 'trialN': 59, 'loaded': True, 'loadedTime': 2646.800000190735, 'positionName': 'RIGHT', 'positionCoords': [798.72, 227], 'bid': 7.74}]",102867.70000004768,1669835484362,raisin bran w milk,fruitsalad,5.98,7.74,1.7599999999999998,fruitsalad,773.2000000476837,773,773.4000000953674,True,i,104148.5,1280.7999999523163,1669835485642,1280,HRV,HRV_0233,2022-11-30 19:14:22
60,"[{'imgObject': {}, 'id': 'steak', 'src': '/static/foodstim60/steak.jpg', 'key': 'u', 'origWidth': 410, 'origHeight': 410, 'width': 410, 'height': 410, 'widthPercent': 0.45, 'rescaleHeight': False, 'trialN': 60, 'loaded': True, 'loadedTime': 2627.300000190735, 'positionName': 'LEFT', 'positionCoords': [327.28, 227], 'bid': 7.3}, {'imgObject': {}, 'id': 'turkey sandwich', 'src': '/static/foodstim60/turkey sandwich.jpg', 'key': 'i', 'origWidth': 409, 'origHeight': 409, 'width': 409, 'height': 409, 'widthPercent': 0.45, 'rescaleHeight': False, 'trialN': 60, 'loaded': True, 'loadedTime': 2675, 'positionName': 'RIGHT', 'positionCoords': [798.72, 227.5], 'bid': 5.42}]",104148.60000014305,1669835485643,steak,turkey sandwich,7.3,5.42,-1.88,steak,844.2000000476837,844,844.5999999046326,True,u,105500.60000014305,1352.0,1669835486995,1352,HRV,HRV_0233,2022-11-30 19:14:22
61,"[{'imgObject': {}, 'id': 'cantaloupe', 'src': '/static/foodstim60/cantaloupe.jpg', 'key': 'u', 'origWidth': 409, 'origHeight': 409, 'width': 409, 'height': 409, 'widthPercent': 0.45, 'rescaleHeight': False, 'trialN': 61, 'loaded': True, 'loadedTime': 2661, 'positionName': 'LEFT', 'positionCoords': [328.28, 227.5], 'bid': 4.63}, {'imgObject': {}, 'id': 'seaweed', 'src': '/static/foodstim60/seaweed.jpg', 'key': 'i', 'origWidth': 410, 'origHeight': 410, 'width': 410, 'height': 410, 'widthPercent': 0.45, 'rescaleHeight': False, 'trialN': 61, 'loaded': True, 'loadedTime': 2590.4000000953674, 'positionName': 'RIGHT', 'positionCoords': [798.72, 227], 'bid': 4.44}]",105500.70000004768,1669835486995,cantaloupe,seaweed,4.63,4.44,-0.1899999999999995,cantaloupe,891.6000001430511,892,891.9000000953674,True,u,106900.20000004768,1399.5,1669835488394,1399,HRV,HRV_0233,2022-11-30 19:14:22
62,"[{'imgObject': {}, 'id': 'bagel plain', 'src': '/static/foodstim60/bagel plain.jpg', 'key': 'u', 'origWidth': 410, 'origHeight': 410, 'width': 410, 'height': 410, 'widthPercent': 0.45, 'rescaleHeight': False, 'trialN': 62, 'loaded': True, 'loadedTime': 2667.100000143051, 'positionName': 'LEFT', 'positionCoords': [327.28, 227], 'bid': 6.3}, {'imgObject': {}, 'id': 'orange slices', 'src': '/static/foodstim60/orange slices.jpg', 'key': 'i', 'origWidth': 409, 'origHeight': 410, 'width': 409, 'height': 410, 'widthPercent': 0.45, 'rescaleHeight': False, 'trialN': 62, 'loaded': True, 'loadedTime': 2695.600000143051, 'positionName': 'RIGHT', 'positionCoords': [798.72, 227], 'bid': 5.78}]",106900.30000019073,1669835488394,bagel plain,orange slices,6.3,5.78,-0.5199999999999996,bagel plain,2021.0999999046326,2022,2021.2999999523163,True,u,109427.70000004768,2527.399999856949,1669835490922,2528,HRV,HRV_0233,2022-11-30 19:14:22
63,"[{'imgObject': {}, 'id': 'chickenfingers', 'src': '/static/foodstim60/chickenfingers.jpg', 'key': 'u', 'origWidth': 410, 'origHeight': 410, 'width': 410, 'height': 410, 'widthPercent': 0.45, 'rescaleHeight': False, 'trialN': 63, 'loaded': True, 'loadedTime': 2593.100000143051, 'positionName': 'LEFT', 'positionCoords': [327.28, 227], 'bid': 6.09}, {'imgObject': {}, 'id': 'Tribe humus pita', 'src': '/static/foodstim60/Tribe humus pita.jpg', 'key': 'i', 'origWidth': 411, 'origHeight': 411, 'width': 411, 'height': 411, 'widthPercent': 0.45, 'rescaleHeight': False, 'trialN': 63, 'loaded': True, 'loadedTime': 2696.300000190735, 'positionName': 'RIGHT', 'positionCoords': [798.72, 226.5], 'bid': 6.21}]",109427.80000019073,1669835490922,chickenfingers,Tribe humus pita,6.09,6.21,0.1200000000000001,chickenfingers,836.0999999046326,836,836.2999999523163,True,u,110764.40000009537,1336.5999999046326,1669835492258,1336,HRV,HRV_0233,2022-11-30 19:14:22
64,"[{'imgObject': {}, 'id': 'apple slices', 'src': '/static/foodstim60/apple slices.jpg', 'key': 'u', 'origWidth': 409, 'origHeight': 410, 'width': 409, 'height': 410, 'widthPercent': 0.45, 'rescaleHeight': False, 'trialN': 64, 'loaded': True, 'loadedTime': 2654, 'positionName': 'LEFT', 'positionCoords': [328.28, 227], 'bid': 4.15}, {'imgObject': {}, 'id': 'hotdog w must', 'src': '/static/foodstim60/hotdog w must.jpg', 'key': 'i', 'origWidth': 409, 'origHeight': 409, 'width': 409, 'height': 409, 'widthPercent': 0.45, 'rescaleHeight': False, 'trialN': 64, 'loaded': True, 'loadedTime': 2692.2000000476837, 'positionName': 'RIGHT', 'positionCoords': [798.72, 227.5], 'bid': 5.03}]",110764.5,1669835492258,apple slices,hotdog w must,4.15,5.03,0.8799999999999999,hotdog w must,2028.6000001430511,2029,2028.9000000953674,True,i,113299.80000019073,2535.300000190735,1669835494794,2536,HRV,HRV_0233,2022-11-30 19:14:22
65,"[{'imgObject': {}, 'id': 'luckycharms', 'src': '/static/foodstim60/luckycharms.jpg', 'key': 'u', 'origWidth': 410, 'origHeight': 409, 'width': 410, 'height': 409, 'widthPercent': 0.45, 'rescaleHeight': False, 'trialN': 65, 'loaded': True, 'loadedTime': 2693, 'positionName': 'LEFT', 'positionCoords': [327.28, 227.5], 'bid': 4.94}, {'imgObject': {}, 'id': 'cherry tomato', 'src': '/static/foodstim60/cherry tomato.jpg', 'key': 'i', 'origWidth': 410, 'origHeight': 410, 'width': 410, 'height': 410, 'widthPercent': 0.45, 'rescaleHeight': False, 'trialN': 65, 'loaded': True, 'loadedTime': 2588.9000000953674, 'positionName': 'RIGHT', 'positionCoords': [798.72, 227], 'bid': 4.8}]",113299.90000009537,1669835494794,luckycharms,cherry tomato,4.94,4.8,-0.14000000000000057,luckycharms,669.0,669,669.2000000476837,True,u,114475.80000019073,1175.9000000953674,1669835495970,1176,HRV,HRV_0233,2022-11-30 19:14:22
66,"[{'imgObject': {}, 'id': 'cherries', 'src': '/static/foodstim60/cherries.jpg', 'key': 'u', 'origWidth': 410, 'origHeight': 411, 'width': 410, 'height': 411, 'widthPercent': 0.45, 'rescaleHeight': False, 'trialN': 66, 'loaded': True, 'loadedTime': 2659.800000190735, 'positionName': 'LEFT', 'positionCoords': [327.28, 226.5], 'bid': 5.39}, {'imgObject': {}, 'id': 'luckycharms', 'src': '/static/foodstim60/luckycharms.jpg', 'key': 'i', 'origWidth': 410, 'origHeight': 409, 'width': 410, 'height': 409, 'widthPercent': 0.45, 'rescaleHeight': False, 'trialN': 66, 'loaded': True, 'loadedTime': 2693, 'positionName': 'RIGHT', 'positionCoords': [798.72, 227.5], 'bid': 4.94}]",114475.90000009537,1669835495970,cherries,luckycharms,5.39,4.94,-0.4499999999999993,cherries,1005.0999999046326,1005,1005.4000000953674,True,u,115988.70000004768,1512.7999999523163,1669835497483,1513,HRV,HRV_0233,2022-11-30 19:14:22
67,"[{'imgObject': {}, 'id': 'avocado', 'src': '/static/foodstim60/avocado.jpg', 'key': 'u', 'origWidth': 409, 'origHeight': 409, 'width': 409, 'height': 409, 'widthPercent': 0.45, 'rescaleHeight': False, 'trialN': 67, 'loaded': True, 'loadedTime': 2595.9000000953674, 'positionName': 'LEFT', 'positionCoords': [328.28, 227.5], 'bid': 5.87}, {'imgObject': {}, 'id': 'blackbeanswithrice', 'src': '/static/foodstim60/blackbeanswithrice.jpg', 'key': 'i', 'origWidth': 410, 'origHeight': 410, 'width': 410, 'height': 410, 'widthPercent': 0.45, 'rescaleHeight': False, 'trialN': 67, 'loaded': True, 'loadedTime': 2658.9000000953674, 'positionName': 'RIGHT', 'positionCoords': [798.72, 227], 'bid': 5.84}]",115988.80000019073,1669835497483,avocado,blackbeanswithrice,5.87,5.84,-0.03000000000000025,blackbeanswithrice,851.6999998092651,852,852.0,True,i,117348.5,1359.6999998092651,1669835498842,1359,HRV,HRV_0233,2022-11-30 19:14:22
68,"[{'imgObject': {}, 'id': 'luckycharms', 'src': '/static/foodstim60/luckycharms.jpg', 'key': 'u', 'origWidth': 410, 'origHeight': 409, 'width': 410, 'height': 409, 'widthPercent': 0.45, 'rescaleHeight': False, 'trialN': 68, 'loaded': True, 'loadedTime': 2692.9000000953674, 'positionName': 'LEFT', 'positionCoords': [327.28, 227.5], 'bid': 4.94}, {'imgObject': {}, 'id': 'sushi w_condiments', 'src': '/static/foodstim60/sushi w_condiments.jpg', 'key': 'i', 'origWidth': 410, 'origHeight': 410, 'width': 410, 'height': 410, 'widthPercent': 0.45, 'rescaleHeight': False, 'trialN': 68, 'loaded': True, 'loadedTime': 2693.7000000476837, 'positionName': 'RIGHT', 'positionCoords': [798.72, 227], 'bid': 5.72}]",117348.70000004768,1669835498843,luckycharms,sushi w_condiments,4.94,5.72,0.7799999999999994,sushi w_condiments,948.1000001430511,948,948.5,True,i,118805.10000014305,1456.4000000953674,1669835500299,1456,HRV,HRV_0233,2022-11-30 19:14:22
69,"[{'imgObject': {}, 'id': 'grilled chicken strips', 'src': '/static/foodstim60/grilled chicken strips.jpg', 'key': 'u', 'origWidth': 410, 'origHeight': 411, 'width': 410, 'height': 411, 'widthPercent': 0.45, 'rescaleHeight': False, 'trialN': 69, 'loaded': True, 'loadedTime': 2683.600000143051, 'positionName': 'LEFT', 'positionCoords': [327.28, 226.5], 'bid': 5.13}, {'imgObject': {}, 'id': 'salad w chicken', 'src': '/static/foodstim60/salad w chicken.jpg', 'key': 'i', 'origWidth': 411, 'origHeight': 411, 'width': 411, 'height': 411, 'widthPercent': 0.45, 'rescaleHeight': False, 'trialN': 69, 'loaded': True, 'loadedTime': 2685.2000000476837, 'positionName': 'RIGHT', 'positionCoords': [798.72, 226.5], 'bid': 5.97}]",118805.20000004768,1669835500299,grilled chicken strips,salad w chicken,5.13,5.97,0.8399999999999999,grilled chicken strips,1011.7000000476837,1012,1011.9000000953674,True,u,120323.90000009537,1518.7000000476837,1669835501817,1518,HRV,HRV_0233,2022-11-30 19:14:22
70,"[{'imgObject': {}, 'id': 'salad w chicken', 'src': '/static/foodstim60/salad w chicken.jpg', 'key': 'u', 'origWidth': 411, 'origHeight': 411, 'width': 411, 'height': 411, 'widthPercent': 0.45, 'rescaleHeight': False, 'trialN': 70, 'loaded': True, 'loadedTime': 2683.800000190735, 'positionName': 'LEFT', 'positionCoords': [326.28, 226.5], 'bid': 5.97}, {'imgObject': {}, 'id': 'eggsalad', 'src': '/static/foodstim60/eggsalad.jpg', 'key': 'i', 'origWidth': 410, 'origHeight': 409, 'width': 410, 'height': 409, 'widthPercent': 0.45, 'rescaleHeight': False, 'trialN': 70, 'loaded': True, 'loadedTime': 2697.100000143051, 'positionName': 'RIGHT', 'positionCoords': [798.72, 227.5], 'bid': 5.55}]",120324.10000014305,1669835501817,salad w chicken,eggsalad,5.97,5.55,-0.41999999999999993,salad w chicken,685.2000000476837,686,685.3999998569489,True,u,121516.90000009537,1192.7999999523163,1669835503010,1193,HRV,HRV_0233,2022-11-30 19:14:22
71,"[{'imgObject': {}, 'id': 'strawberries', 'src': '/static/foodstim60/strawberries.jpg', 'key': 'u', 'origWidth': 410, 'origHeight': 410, 'width': 410, 'height': 410, 'widthPercent': 0.45, 'rescaleHeight': False, 'trialN': 71, 'loaded': True, 'loadedTime': 2697.9000000953674, 'positionName': 'LEFT', 'positionCoords': [327.28, 227], 'bid': 5.55}, {'imgObject': {}, 'id': 'eggsalad', 'src': '/static/foodstim60/eggsalad.jpg', 'key': 'i', 'origWidth': 410, 'origHeight': 409, 'width': 410, 'height': 409, 'widthPercent': 0.45, 'rescaleHeight': False, 'trialN': 71, 'loaded': True, 'loadedTime': 2696.5, 'positionName': 'RIGHT', 'positionCoords': [798.72, 227.5], 'bid': 5.55}]",121517.0,1669835503010,strawberries,eggsalad,5.55,5.55,0.0,strawberries,2124.0,2125,2124.2000000476837,True,u,124148.40000009537,2631.4000000953674,1669835505642,2632,HRV,HRV_0233,2022-11-30 19:14:22
72,"[{'imgObject': {}, 'id': 'mango', 'src': '/static/foodstim60/mango.jpg', 'key': 'u', 'origWidth': 411, 'origHeight': 411, 'width': 411, 'height': 411, 'widthPercent': 0.45, 'rescaleHeight': False, 'trialN': 72, 'loaded': True, 'loadedTime': 2689.5, 'positionName': 'LEFT', 'positionCoords': [326.28, 226.5], 'bid': 6.3}, {'imgObject': {}, 'id': 'kiwi', 'src': '/static/foodstim60/kiwi.jpg', 'key': 'i', 'origWidth': 410, 'origHeight': 410, 'width': 410, 'height': 410, 'widthPercent': 0.45, 'rescaleHeight': False, 'trialN': 72, 'loaded': True, 'loadedTime': 2694.5, 'positionName': 'RIGHT', 'positionCoords': [798.72, 227], 'bid': 5.78}]",124148.60000014305,1669835505642,mango,kiwi,6.3,5.78,-0.5199999999999996,mango,996.0,996,996.2000000476837,True,u,125653.30000019073,1504.7000000476837,1669835507147,1505,HRV,HRV_0233,2022-11-30 19:14:22
73,"[{'imgObject': {}, 'id': 'rigatoni', 'src': '/static/foodstim60/rigatoni.jpg', 'key': 'u', 'origWidth': 411, 'origHeight': 411, 'width': 411, 'height': 411, 'widthPercent': 0.45, 'rescaleHeight': False, 'trialN': 73, 'loaded': True, 'loadedTime': 2690.300000190735, 'positionName': 'LEFT', 'positionCoords': [326.28, 226.5], 'bid': 4.94}, {'imgObject': {}, 'id': 'apple slices', 'src': '/static/foodstim60/apple slices.jpg', 'key': 'i', 'origWidth': 409, 'origHeight': 410, 'width': 409, 'height': 410, 'widthPercent': 0.45, 'rescaleHeight': False, 'trialN': 73, 'loaded': True, 'loadedTime': 2656.2000000476837, 'positionName': 'RIGHT', 'positionCoords': [798.72, 227], 'bid': 4.15}]",125653.40000009537,1669835507147,rigatoni,apple slices,4.94,4.15,-0.79,rigatoni,1155.2999999523163,1155,1155.5999999046326,True,u,127316.30000019073,1662.9000000953674,1669835508810,1663,HRV,HRV_0233,2022-11-30 19:14:22
74,"[{'imgObject': {}, 'id': 'omelette', 'src': '/static/foodstim60/omelette.jpg', 'key': 'u', 'origWidth': 410, 'origHeight': 409, 'width': 410, 'height': 409, 'widthPercent': 0.45, 'rescaleHeight': False, 'trialN': 74, 'loaded': True, 'loadedTime': 2597.7000000476837, 'positionName': 'LEFT', 'positionCoords': [327.28, 227.5], 'bid': 5.5200000000000005}, {'imgObject': {}, 'id': 'olives', 'src': '/static/foodstim60/olives.jpg', 'key': 'i', 'origWidth': 410, 'origHeight': 410, 'width': 410, 'height': 410, 'widthPercent': 0.45, 'rescaleHeight': False, 'trialN': 74, 'loaded': True, 'loadedTime': 2668.300000190735, 'positionName': 'RIGHT', 'positionCoords': [798.72, 227], 'bid': 3.25}]",127316.30000019073,1669835508810,omelette,olives,5.5200000000000005,3.25,-2.2700000000000005,omelette,772.5999999046326,772,772.7999999523163,True,u,128595.70000004768,1279.3999998569489,1669835510089,1279,HRV,HRV_0233,2022-11-30 19:14:22
75,"[{'imgObject': {}, 'id': 'veggieswithdip', 'src': '/static/foodstim60/veggieswithdip.jpg', 'key': 'u', 'origWidth': 409, 'origHeight': 409, 'width': 409, 'height': 409, 'widthPercent': 0.45, 'rescaleHeight': False, 'trialN': 75, 'loaded': True, 'loadedTime': 2676.7000000476837, 'positionName': 'LEFT', 'positionCoords': [328.28, 227.5], 'bid': 4.72}, {'imgObject': {}, 'id': 'eggs', 'src': '/static/foodstim60/eggs.jpg', 'key': 'i', 'origWidth': 409, 'origHeight': 409, 'width': 409, 'height': 409, 'widthPercent': 0.45, 'rescaleHeight': False, 'trialN': 75, 'loaded': True, 'loadedTime': 2680.4000000953674, 'positionName': 'RIGHT', 'positionCoords': [798.72, 227.5], 'bid': 5.69}]",128595.90000009537,1669835510089,veggieswithdip,eggs,4.72,5.69,0.9700000000000006,veggieswithdip,3444.9000000953674,3445,3445.2000000476837,True,u,132548.70000004768,3952.7999999523163,1669835514042,3953,HRV,HRV_0233,2022-11-30 19:14:22
76,"[{'imgObject': {}, 'id': 'pear', 'src': '/static/foodstim60/pear.jpg', 'key': 'u', 'origWidth': 411, 'origHeight': 410, 'width': 411, 'height': 410, 'widthPercent': 0.45, 'rescaleHeight': False, 'trialN': 76, 'loaded': True, 'loadedTime': 2653.5, 'positionName': 'LEFT', 'positionCoords': [326.28, 227], 'bid': 4.21}, {'imgObject': {}, 'id': 'olives', 'src': '/static/foodstim60/olives.jpg', 'key': 'i', 'origWidth': 410, 'origHeight': 410, 'width': 410, 'height': 410, 'widthPercent': 0.45, 'rescaleHeight': False, 'trialN': 76, 'loaded': True, 'loadedTime': 2671.800000190735, 'positionName': 'RIGHT', 'positionCoords': [798.72, 227], 'bid': 3.25}]",132548.70000004768,1669835514042,pear,olives,4.21,3.25,-0.96,pear,1300.1000001430511,1301,1300.6000001430511,True,u,134356.30000019073,1807.6000001430511,1669835515850,1808,HRV,HRV_0233,2022-11-30 19:14:22
77,"[{'imgObject': {}, 'id': 'pear', 'src': '/static/foodstim60/pear.jpg', 'key': 'u', 'origWidth': 411, 'origHeight': 410, 'width': 411, 'height': 410, 'widthPercent': 0.45, 'rescaleHeight': False, 'trialN': 77, 'loaded': True, 'loadedTime': 2653.100000143051, 'positionName': 'LEFT', 'positionCoords': [326.28, 227], 'bid': 4.21}, {'imgObject': {}, 'id': 'lox', 'src': '/static/foodstim60/lox.jpg', 'key': 'i', 'origWidth': 410, 'origHeight': 411, 'width': 410, 'height': 411, 'widthPercent': 0.45, 'rescaleHeight': False, 'trialN': 77, 'loaded': True, 'loadedTime': 2633.4000000953674, 'positionName': 'RIGHT', 'positionCoords': [798.72, 226.5], 'bid': 5}]",134356.5,1669835515850,pear,lox,4.21,5.0,0.79,pear,2908.2000000476837,2908,2908.4000000953674,True,u,137765.5,3409.0,1669835519259,3409,HRV,HRV_0233,2022-11-30 19:14:22
78,"[{'imgObject': {}, 'id': 'luckycharms', 'src': '/static/foodstim60/luckycharms.jpg', 'key': 'u', 'origWidth': 410, 'origHeight': 409, 'width': 410, 'height': 409, 'widthPercent': 0.45, 'rescaleHeight': False, 'trialN': 78, 'loaded': True, 'loadedTime': 2692.4000000953674, 'positionName': 'LEFT', 'positionCoords': [327.28, 227.5], 'bid': 4.94}, {'imgObject': {}, 'id': 'olives', 'src': '/static/foodstim60/olives.jpg', 'key': 'i', 'origWidth': 410, 'origHeight': 410, 'width': 410, 'height': 410, 'widthPercent': 0.45, 'rescaleHeight': False, 'trialN': 78, 'loaded': True, 'loadedTime': 2668.4000000953674, 'positionName': 'RIGHT', 'positionCoords': [798.72, 227], 'bid': 3.25}]",137765.5,1669835519259,luckycharms,olives,4.94,3.25,-1.6900000000000004,luckycharms,739.9000000953674,740,740.3000001907349,True,u,139012.30000019073,1246.8000001907349,1669835520506,1247,HRV,HRV_0233,2022-11-30 19:14:22
79,"[{'imgObject': {}, 'id': 'blackbeanswithrice', 'src': '/static/foodstim60/blackbeanswithrice.jpg', 'key': 'u', 'origWidth': 410, 'origHeight': 410, 'width': 410, 'height': 410, 'widthPercent': 0.45, 'rescaleHeight': False, 'trialN': 79, 'loaded': True, 'loadedTime': 2658.9000000953674, 'positionName': 'LEFT', 'positionCoords': [327.28, 227], 'bid': 5.84}, {'imgObject': {}, 'id': 'omelette', 'src': '/static/foodstim60/omelette.jpg', 'key': 'i', 'origWidth': 410, 'origHeight': 409, 'width': 410, 'height': 409, 'widthPercent': 0.45, 'rescaleHeight': False, 'trialN': 79, 'loaded': True, 'loadedTime': 2598.800000190735, 'positionName': 'RIGHT', 'positionCoords': [798.72, 227.5], 'bid': 5.5200000000000005}]",139012.70000004768,1669835520506,blackbeanswithrice,omelette,5.84,5.5200000000000005,-0.3199999999999994,blackbeanswithrice,1100.2000000476837,1101,1100.5,True,u,140620.60000014305,1607.9000000953674,1669835522114,1608,HRV,HRV_0233,2022-11-30 19:14:22
80,"[{'imgObject': {}, 'id': 'blueberries', 'src': '/static/foodstim60/blueberries.jpg', 'key': 'u', 'origWidth': 411, 'origHeight': 411, 'width': 411, 'height': 411, 'widthPercent': 0.45, 'rescaleHeight': False, 'trialN': 80, 'loaded': True, 'loadedTime': 2698.7000000476837, 'positionName': 'LEFT', 'positionCoords': [326.28, 226.5], 'bid': 5.79}, {'imgObject': {}, 'id': 'blackbeanswithrice', 'src': '/static/foodstim60/blackbeanswithrice.jpg', 'key': 'i', 'origWidth': 410, 'origHeight': 410, 'width': 410, 'height': 410, 'widthPercent': 0.45, 'rescaleHeight': False, 'trialN': 80, 'loaded': True, 'loadedTime': 2658.9000000953674, 'positionName': 'RIGHT', 'positionCoords': [798.72, 227], 'bid': 5.84}]",140620.60000014305,1669835522114,blueberries,blackbeanswithrice,5.79,5.84,0.04999999999999982,blackbeanswithrice,979.7000000476837,980,980.0999999046326,True,i,142108.5,1487.8999998569489,1669835523602,1488,HRV,HRV_0233,2022-11-30 19:14:22
81,"[{'imgObject': {}, 'id': 'shreddedwheatwithmilk', 'src': '/static/foodstim60/shreddedwheatwithmilk.jpg', 'key': 'u', 'origWidth': 410, 'origHeight': 410, 'width': 410, 'height': 410, 'widthPercent': 0.45, 'rescaleHeight': False, 'trialN': 81, 'loaded': True, 'loadedTime': 2642, 'positionName': 'LEFT', 'positionCoords': [327.28, 227], 'bid': 5.63}, {'imgObject': {}, 'id': 'hashbrowns', 'src': '/static/foodstim60/hashbrowns.jpg', 'key': 'i', 'origWidth': 411, 'origHeight': 410, 'width': 411, 'height': 410, 'widthPercent': 0.45, 'rescaleHeight': False, 'trialN': 81, 'loaded': True, 'loadedTime': 2628.100000143051, 'positionName': 'RIGHT', 'positionCoords': [798.72, 227], 'bid': 5.3500000000000005}]",142108.5,1669835523602,shreddedwheatwithmilk,hashbrowns,5.63,5.3500000000000005,-0.27999999999999936,hashbrowns,1012.9000000953674,1013,1013.1000001430511,True,i,143628.30000019073,1519.8000001907349,1669835525122,1520,HRV,HRV_0233,2022-11-30 19:14:22
82,"[{'imgObject': {}, 'id': 'popsicles', 'src': '/static/foodstim60/popsicles.jpg', 'key': 'u', 'origWidth': 410, 'origHeight': 410, 'width': 410, 'height': 410, 'widthPercent': 0.45, 'rescaleHeight': False, 'trialN': 82, 'loaded': True, 'loadedTime': 2705.600000143051, 'positionName': 'LEFT', 'positionCoords': [327.28, 227], 'bid': 5.65}, {'imgObject': {}, 'id': 'bagel plain', 'src': '/static/foodstim60/bagel plain.jpg', 'key': 'i', 'origWidth': 410, 'origHeight': 410, 'width': 410, 'height': 410, 'widthPercent': 0.45, 'rescaleHeight': False, 'trialN': 82, 'loaded': True, 'loadedTime': 2667.5, 'positionName': 'RIGHT', 'positionCoords': [798.72, 227], 'bid': 6.3}]",143628.5,1669835525122,popsicles,bagel plain,5.65,6.3,0.6499999999999995,bagel plain,900.4000000953674,901,900.7000000476837,True,i,145036.5,1408.0,1669835526530,1408,HRV,HRV_0233,2022-11-30 19:14:22
83,"[{'imgObject': {}, 'id': 'cherry tomato', 'src': '/static/foodstim60/cherry tomato.jpg', 'key': 'u', 'origWidth': 410, 'origHeight': 410, 'width': 410, 'height': 410, 'widthPercent': 0.45, 'rescaleHeight': False, 'trialN': 83, 'loaded': True, 'loadedTime': 2589.2000000476837, 'positionName': 'LEFT', 'positionCoords': [327.28, 227], 'bid': 4.8}, {'imgObject': {}, 'id': 'burrito', 'src': '/static/foodstim60/burrito.jpg', 'key': 'i', 'origWidth': 410, 'origHeight': 410, 'width': 410, 'height': 410, 'widthPercent': 0.45, 'rescaleHeight': False, 'trialN': 83, 'loaded': True, 'loadedTime': 2595.2000000476837, 'positionName': 'RIGHT', 'positionCoords': [798.72, 227], 'bid': 5.72}]",145036.60000014305,1669835526530,cherry tomato,burrito,4.8,5.72,0.9199999999999999,burrito,876.0,876,876.2000000476837,True,i,146419.70000004768,1383.0999999046326,1669835527913,1383,HRV,HRV_0233,2022-11-30 19:14:22
84,"[{'imgObject': {}, 'id': 'kiwi', 'src': '/static/foodstim60/kiwi.jpg', 'key': 'u', 'origWidth': 410, 'origHeight': 410, 'width': 410, 'height': 410, 'widthPercent': 0.45, 'rescaleHeight': False, 'trialN': 84, 'loaded': True, 'loadedTime': 2694.600000143051, 'positionName': 'LEFT', 'positionCoords': [327.28, 227], 'bid': 5.78}, {'imgObject': {}, 'id': 'sushi w_condiments', 'src': '/static/foodstim60/sushi w_condiments.jpg', 'key': 'i', 'origWidth': 410, 'origHeight': 410, 'width': 410, 'height': 410, 'widthPercent': 0.45, 'rescaleHeight': False, 'trialN': 84, 'loaded': True, 'loadedTime': 2693.2000000476837, 'positionName': 'RIGHT', 'positionCoords': [798.72, 227], 'bid': 5.72}]",146419.80000019073,1669835527913,kiwi,sushi w_condiments,5.78,5.72,-0.0600000000000005,sushi w_condiments,844.8999998569489,845,845.0999999046326,True,i,147765.10000014305,1345.2999999523163,1669835529258,1345,HRV,HRV_0233,2022-11-30 19:14:22
85,"[{'imgObject': {}, 'id': 'turkeysandwich', 'src': '/static/foodstim60/turkeysandwich.jpg', 'key': 'u', 'origWidth': 409, 'origHeight': 409, 'width': 409, 'height': 409, 'widthPercent': 0.45, 'rescaleHeight': False, 'trialN': 85, 'loaded': True, 'loadedTime': 2601, 'positionName': 'LEFT', 'positionCoords': [328.28, 227.5], 'bid': 5.29}, {'imgObject': {}, 'id': 'strawberries', 'src': '/static/foodstim60/strawberries.jpg', 'key': 'i', 'origWidth': 410, 'origHeight': 410, 'width': 410, 'height': 410, 'widthPercent': 0.45, 'rescaleHeight': False, 'trialN': 85, 'loaded': True, 'loadedTime': 2697.9000000953674, 'positionName': 'RIGHT', 'positionCoords': [798.72, 227], 'bid': 5.55}]",147765.20000004768,1669835529259,turkeysandwich,strawberries,5.29,5.55,0.2599999999999998,turkeysandwich,635.7000000476837,635,635.9000000953674,True,u,148907.70000004768,1142.5,1669835530401,1142,HRV,HRV_0233,2022-11-30 19:14:22
86,"[{'imgObject': {}, 'id': 'blueberries', 'src': '/static/foodstim60/blueberries.jpg', 'key': 'u', 'origWidth': 411, 'origHeight': 411, 'width': 411, 'height': 411, 'widthPercent': 0.45, 'rescaleHeight': False, 'trialN': 86, 'loaded': True, 'loadedTime': 2698.600000143051, 'positionName': 'LEFT', 'positionCoords': [326.28, 226.5], 'bid': 5.79}, {'imgObject': {}, 'id': 'chicken nuggets2', 'src': '/static/foodstim60/chicken nuggets2.jpg', 'key': 'i', 'origWidth': 410, 'origHeight': 409, 'width': 410, 'height': 409, 'widthPercent': 0.45, 'rescaleHeight': False, 'trialN': 86, 'loaded': True, 'loadedTime': 2699.800000190735, 'positionName': 'RIGHT', 'positionCoords': [798.72, 227.5], 'bid': 5.65}]",148907.70000004768,1669835530401,blueberries,chicken nuggets2,5.79,5.65,-0.13999999999999968,chicken nuggets2,853.1000001430511,853,853.4000000953674,True,i,150268.60000014305,1360.9000000953674,1669835531762,1361,HRV,HRV_0233,2022-11-30 19:14:22
87,"[{'imgObject': {}, 'id': 'orange slices', 'src': '/static/foodstim60/orange slices.jpg', 'key': 'u', 'origWidth': 409, 'origHeight': 410, 'width': 409, 'height': 410, 'widthPercent': 0.45, 'rescaleHeight': False, 'trialN': 87, 'loaded': True, 'loadedTime': 2694.800000190735, 'positionName': 'LEFT', 'positionCoords': [328.28, 227], 'bid': 5.78}, {'imgObject': {}, 'id': 'kiwi', 'src': '/static/foodstim60/kiwi.jpg', 'key': 'i', 'origWidth': 410, 'origHeight': 410, 'width': 410, 'height': 410, 'widthPercent': 0.45, 'rescaleHeight': False, 'trialN': 87, 'loaded': True, 'loadedTime': 2694, 'positionName': 'RIGHT', 'positionCoords': [798.72, 227], 'bid': 5.78}]",150268.80000019073,1669835531762,orange slices,kiwi,5.78,5.78,0.0,orange slices,996.5999999046326,997,996.7999999523163,True,u,151772.5,1503.6999998092651,1669835533266,1504,HRV,HRV_0233,2022-11-30 19:14:22
88,"[{'imgObject': {}, 'id': 'eggs', 'src': '/static/foodstim60/eggs.jpg', 'key': 'u', 'origWidth': 409, 'origHeight': 409, 'width': 409, 'height': 409, 'widthPercent': 0.45, 'rescaleHeight': False, 'trialN': 88, 'loaded': True, 'loadedTime': 2679.800000190735, 'positionName': 'LEFT', 'positionCoords': [328.28, 227.5], 'bid': 5.69}, {'imgObject': {}, 'id': 'raspberries', 'src': '/static/foodstim60/raspberries.jpg', 'key': 'i', 'origWidth': 411, 'origHeight': 411, 'width': 411, 'height': 411, 'widthPercent': 0.45, 'rescaleHeight': False, 'trialN': 88, 'loaded': True, 'loadedTime': 2677.800000190735, 'positionName': 'RIGHT', 'positionCoords': [798.72, 226.5], 'bid': 5.48}]",151772.60000014305,1669835533266,eggs,raspberries,5.69,5.48,-0.20999999999999996,raspberries,813.3999998569489,814,813.5999999046326,True,i,153092.0,1319.3999998569489,1669835534585,1319,HRV,HRV_0233,2022-11-30 19:14:22
89,"[{'imgObject': {}, 'id': 'seaweed', 'src': '/static/foodstim60/seaweed.jpg', 'key': 'u', 'origWidth': 410, 'origHeight': 410, 'width': 410, 'height': 410, 'widthPercent': 0.45, 'rescaleHeight': False, 'trialN': 89, 'loaded': True, 'loadedTime': 2590.600000143051, 'positionName': 'LEFT', 'positionCoords': [327.28, 227], 'bid': 4.44}, {'imgObject': {}, 'id': 'banana', 'src': '/static/foodstim60/banana.jpg', 'key': 'i', 'origWidth': 410, 'origHeight': 410, 'width': 410, 'height': 410, 'widthPercent': 0.45, 'rescaleHeight': False, 'trialN': 89, 'loaded': True, 'loadedTime': 2636.2000000476837, 'positionName': 'RIGHT', 'positionCoords': [798.72, 227], 'bid': 5.01}]",153092.0,1669835534585,seaweed,banana,4.44,5.01,0.5699999999999994,banana,916.8000001907349,918,917.3000001907349,True,i,154516.10000014305,1424.1000001430511,1669835536009,1424,HRV,HRV_0233,2022-11-30 19:14:22
90,"[{'imgObject': {}, 'id': 'luckycharms', 'src': '/static/foodstim60/luckycharms.jpg', 'key': 'u', 'origWidth': 410, 'origHeight': 409, 'width': 410, 'height': 409, 'widthPercent': 0.45, 'rescaleHeight': False, 'trialN': 90, 'loaded': True, 'loadedTime': 2692.800000190735, 'positionName': 'LEFT', 'positionCoords': [327.28, 227.5], 'bid': 4.94}, {'imgObject': {}, 'id': 'seaweed', 'src': '/static/foodstim60/seaweed.jpg', 'key': 'i', 'origWidth': 410, 'origHeight': 410, 'width': 410, 'height': 410, 'widthPercent': 0.45, 'rescaleHeight': False, 'trialN': 90, 'loaded': True, 'loadedTime': 2589.5, 'positionName': 'RIGHT', 'positionCoords': [798.72, 227], 'bid': 4.44}]",157924.5,1669835539418,luckycharms,seaweed,4.94,4.44,-0.5,luckycharms,852.2000000476837,852,852.5,True,u,159284.90000009537,1360.4000000953674,1669835540778,1360,HRV,HRV_0233,2022-11-30 19:14:22
91,"[{'imgObject': {}, 'id': 'bagel and cc', 'src': '/static/foodstim60/bagel and cc.jpg', 'key': 'u', 'origWidth': 410, 'origHeight': 410, 'width': 410, 'height': 410, 'widthPercent': 0.45, 'rescaleHeight': False, 'trialN': 91, 'loaded': True, 'loadedTime': 2614.7000000476837, 'positionName': 'LEFT', 'positionCoords': [327.28, 227], 'bid': 6.61}, {'imgObject': {}, 'id': 'sushi w_condiments', 'src': '/static/foodstim60/sushi w_condiments.jpg', 'key': 'i', 'origWidth': 410, 'origHeight': 410, 'width': 410, 'height': 410, 'widthPercent': 0.45, 'rescaleHeight': False, 'trialN': 91, 'loaded': True, 'loadedTime': 2693.800000190735, 'positionName': 'RIGHT', 'positionCoords': [798.72, 227], 'bid': 5.72}]",159285.0,1669835540778,bagel and cc,sushi w_condiments,6.61,5.72,-0.8900000000000006,sushi w_condiments,2115.0,2116,2115.4000000953674,True,i,161908.20000004768,2623.2000000476837,1669835543402,2624,HRV,HRV_0233,2022-11-30 19:14:22
92,"[{'imgObject': {}, 'id': 'avocado', 'src': '/static/foodstim60/avocado.jpg', 'key': 'u', 'origWidth': 409, 'origHeight': 409, 'width': 409, 'height': 409, 'widthPercent': 0.45, 'rescaleHeight': False, 'trialN': 92, 'loaded': True, 'loadedTime': 2596.100000143051, 'positionName': 'LEFT', 'positionCoords': [328.28, 227.5], 'bid': 5.87}, {'imgObject': {}, 'id': 'strawberries', 'src': '/static/foodstim60/strawberries.jpg', 'key': 'i', 'origWidth': 410, 'origHeight': 410, 'width': 410, 'height': 410, 'widthPercent': 0.45, 'rescaleHeight': False, 'trialN': 92, 'loaded': True, 'loadedTime': 2698, 'positionName': 'RIGHT', 'positionCoords': [798.72, 227], 'bid': 5.55}]",161908.40000009537,1669835543402,avocado,strawberries,5.87,5.55,-0.3200000000000003,strawberries,708.4000000953674,708,708.7000000476837,True,i,163124.70000004768,1216.2999999523163,1669835544618,1216,HRV,HRV_0233,2022-11-30 19:14:22
93,"[{'imgObject': {}, 'id': 'pear', 'src': '/static/foodstim60/pear.jpg', 'key': 'u', 'origWidth': 411, 'origHeight': 410, 'width': 411, 'height': 410, 'widthPercent': 0.45, 'rescaleHeight': False, 'trialN': 93, 'loaded': True, 'loadedTime': 2652.9000000953674, 'positionName': 'LEFT', 'positionCoords': [326.28, 227], 'bid': 4.21}, {'imgObject': {}, 'id': 'eggsalad', 'src': '/static/foodstim60/eggsalad.jpg', 'key': 'i', 'origWidth': 410, 'origHeight': 409, 'width': 410, 'height': 409, 'widthPercent': 0.45, 'rescaleHeight': False, 'trialN': 93, 'loaded': True, 'loadedTime': 2697.300000190735, 'positionName': 'RIGHT', 'positionCoords': [798.72, 227.5], 'bid': 5.55}]",163124.70000004768,1669835544618,pear,eggsalad,4.21,5.55,1.3399999999999999,eggsalad,1396.2000000476837,1396,1396.5,True,i,165028.10000014305,1903.4000000953674,1669835546522,1904,HRV,HRV_0233,2022-11-30 19:14:22
94,"[{'imgObject': {}, 'id': 'fried eggs', 'src': '/static/foodstim60/fried eggs.jpg', 'key': 'u', 'origWidth': 410, 'origHeight': 410, 'width': 410, 'height': 410, 'widthPercent': 0.45, 'rescaleHeight': False, 'trialN': 94, 'loaded': True, 'loadedTime': 2645.600000143051, 'positionName': 'LEFT', 'positionCoords': [327.28, 227], 'bid': 5.58}, {'imgObject': {}, 'id': 'sweetpotato', 'src': '/static/foodstim60/sweetpotato.jpg', 'key': 'i', 'origWidth': 410, 'origHeight': 410, 'width': 410, 'height': 410, 'widthPercent': 0.45, 'rescaleHeight': False, 'trialN': 94, 'loaded': True, 'loadedTime': 2688.800000190735, 'positionName': 'RIGHT', 'positionCoords': [798.72, 227], 'bid': 4.28}]",165028.20000004768,1669835546522,fried eggs,sweetpotato,5.58,4.28,-1.2999999999999998,fried eggs,1483.9000000953674,1484,1484.2000000476837,True,u,167012.5,1984.2999999523163,1669835548506,1984,HRV,HRV_0233,2022-11-30 19:14:22
95,"[{'imgObject': {}, 'id': 'apple slices', 'src': '/static/foodstim60/apple slices.jpg', 'key': 'u', 'origWidth': 409, 'origHeight': 410, 'width': 409, 'height': 410, 'widthPercent': 0.45, 'rescaleHeight': False, 'trialN': 95, 'loaded': True, 'loadedTime': 2655.2000000476837, 'positionName': 'LEFT', 'positionCoords': [328.28, 227], 'bid': 4.15}, {'imgObject': {}, 'id': 'edamame', 'src': '/static/foodstim60/edamame.jpg', 'key': 'i', 'origWidth': 409, 'origHeight': 410, 'width': 409, 'height': 410, 'widthPercent': 0.45, 'rescaleHeight': False, 'trialN': 95, 'loaded': True, 'loadedTime': 2657.300000190735, 'positionName': 'RIGHT', 'positionCoords': [798.72, 227], 'bid': 1.86}]",167012.60000014305,1669835548506,apple slices,edamame,4.15,1.86,-2.29,apple slices,1252.0,1252,1252.2999999523163,True,u,168772.30000019073,1759.7000000476837,1669835550266,1760,HRV,HRV_0233,2022-11-30 19:14:22
96,"[{'imgObject': {}, 'id': 'grilled chicken strips', 'src': '/static/foodstim60/grilled chicken strips.jpg', 'key': 'u', 'origWidth': 410, 'origHeight': 411, 'width': 410, 'height': 411, 'widthPercent': 0.45, 'rescaleHeight': False, 'trialN': 96, 'loaded': True, 'loadedTime': 2683.7000000476837, 'positionName': 'LEFT', 'positionCoords': [327.28, 226.5], 'bid': 5.13}, {'imgObject': {}, 'id': 'mashed potato', 'src': '/static/foodstim60/mashed potato.jpg', 'key': 'i', 'origWidth': 409, 'origHeight': 409, 'width': 409, 'height': 409, 'widthPercent': 0.45, 'rescaleHeight': False, 'trialN': 96, 'loaded': True, 'loadedTime': 2691.2000000476837, 'positionName': 'RIGHT', 'positionCoords': [798.72, 227.5], 'bid': 5.0200000000000005}]",168772.5,1669835550266,grilled chicken strips,mashed potato,5.13,5.0200000000000005,-0.10999999999999943,grilled chicken strips,1340.3000001907349,1340,1340.7000000476837,True,u,170620.80000019073,1848.3000001907349,1669835552114,1848,HRV,HRV_0233,2022-11-30 19:14:22
97,"[{'imgObject': {}, 'id': 'cherries', 'src': '/static/foodstim60/cherries.jpg', 'key': 'u', 'origWidth': 410, 'origHeight': 411, 'width': 410, 'height': 411, 'widthPercent': 0.45, 'rescaleHeight': False, 'trialN': 97, 'loaded': True, 'loadedTime': 2660, 'positionName': 'LEFT', 'positionCoords': [327.28, 226.5], 'bid': 5.39}, {'imgObject': {}, 'id': 'strawberries', 'src': '/static/foodstim60/strawberries.jpg', 'key': 'i', 'origWidth': 410, 'origHeight': 410, 'width': 410, 'height': 410, 'widthPercent': 0.45, 'rescaleHeight': False, 'trialN': 97, 'loaded': True, 'loadedTime': 2697.800000190735, 'positionName': 'RIGHT', 'positionCoords': [798.72, 227], 'bid': 5.55}]",170620.90000009537,1669835552114,cherries,strawberries,5.39,5.55,0.16000000000000014,strawberries,1155.9000000953674,1156,1156.0,True,i,172284.0,1663.0999999046326,1669835553777,1663,HRV,HRV_0233,2022-11-30 19:14:22
98,"[{'imgObject': {}, 'id': 'fruitsalad', 'src': '/static/foodstim60/fruitsalad.jpg', 'key': 'u', 'origWidth': 410, 'origHeight': 410, 'width': 410, 'height': 410, 'widthPercent': 0.45, 'rescaleHeight': False, 'trialN': 98, 'loaded': True, 'loadedTime': 2647.9000000953674, 'positionName': 'LEFT', 'positionCoords': [327.28, 227], 'bid': 7.74}, {'imgObject': {}, 'id': 'blueberries', 'src': '/static/foodstim60/blueberries.jpg', 'key': 'i', 'origWidth': 411, 'origHeight': 411, 'width': 411, 'height': 411, 'widthPercent': 0.45, 'rescaleHeight': False, 'trialN': 98, 'loaded': True, 'loadedTime': 2698.5, 'positionName': 'RIGHT', 'positionCoords': [798.72, 226.5], 'bid': 5.79}]",172284.20000004768,1669835553778,fruitsalad,blueberries,7.74,5.79,-1.9500000000000002,fruitsalad,796.6000001430511,797,796.9000000953674,True,u,173588.60000014305,1304.4000000953674,1669835555082,1304,HRV,HRV_0233,2022-11-30 19:14:22
99,"[{'imgObject': {}, 'id': 'cantaloupe', 'src': '/static/foodstim60/cantaloupe.jpg', 'key': 'u', 'origWidth': 409, 'origHeight': 409, 'width': 409, 'height': 409, 'widthPercent': 0.45, 'rescaleHeight': False, 'trialN': 99, 'loaded': True, 'loadedTime': 2661.600000143051, 'positionName': 'LEFT', 'positionCoords': [328.28, 227.5], 'bid': 4.63}, {'imgObject': {}, 'id': 'popsicles', 'src': '/static/foodstim60/popsicles.jpg', 'key': 'i', 'origWidth': 410, 'origHeight': 410, 'width': 410, 'height': 410, 'widthPercent': 0.45, 'rescaleHeight': False, 'trialN': 99, 'loaded': True, 'loadedTime': 2706.4000000953674, 'positionName': 'RIGHT', 'positionCoords': [798.72, 227], 'bid': 5.65}]",173588.70000004768,1669835555082,cantaloupe,popsicles,4.63,5.65,1.0200000000000005,cantaloupe,1980.7000000476837,1981,1980.9000000953674,True,u,176076.0,2487.2999999523163,1669835557569,2487,HRV,HRV_0233,2022-11-30 19:14:22
100,"[{'imgObject': {}, 'id': 'Grapes', 'src': '/static/foodstim60/Grapes.jpg', 'key': 'u', 'origWidth': 411, 'origHeight': 411, 'width': 411, 'height': 411, 'widthPercent': 0.45, 'rescaleHeight': False, 'trialN': 100, 'loaded': True, 'loadedTime': 2651.5, 'positionName': 'LEFT', 'positionCoords': [326.28, 226.5], 'bid': 7.63}, {'imgObject': {}, 'id': 'bagel plain', 'src': '/static/foodstim60/bagel plain.jpg', 'key': 'i', 'origWidth': 410, 'origHeight': 410, 'width': 410, 'height': 410, 'widthPercent': 0.45, 'rescaleHeight': False, 'trialN': 100, 'loaded': True, 'loadedTime': 2667.5, 'positionName': 'RIGHT', 'positionCoords': [798.72, 227], 'bid': 6.3}]",176076.0,1669835557569,Grapes,bagel plain,7.63,6.3,-1.33,Grapes,892.5,893,892.9000000953674,True,u,177476.60000014305,1400.6000001430511,1669835558970,1401,HRV,HRV_0233,2022-11-30 19:14:22
101,"[{'imgObject': {}, 'id': 'sweetpotato', 'src': '/static/foodstim60/sweetpotato.jpg', 'key': 'u', 'origWidth': 410, 'origHeight': 410, 'width': 410, 'height': 410, 'widthPercent': 0.45, 'rescaleHeight': False, 'trialN': 101, 'loaded': True, 'loadedTime': 2688.7000000476837, 'positionName': 'LEFT', 'positionCoords': [327.28, 227], 'bid': 4.28}, {'imgObject': {}, 'id': 'salmon', 'src': '/static/foodstim60/salmon.jpg', 'key': 'i', 'origWidth': 410, 'origHeight': 409, 'width': 410, 'height': 409, 'widthPercent': 0.45, 'rescaleHeight': False, 'trialN': 101, 'loaded': True, 'loadedTime': 2700.5, 'positionName': 'RIGHT', 'positionCoords': [798.72, 227.5], 'bid': 5.01}]",177476.80000019073,1669835558970,sweetpotato,salmon,4.28,5.01,0.7299999999999995,salmon,836.0,837,836.2999999523163,True,i,178819.70000004768,1342.8999998569489,1669835560313,1343,HRV,HRV_0233,2022-11-30 19:14:22
102,"[{'imgObject': {}, 'id': 'veggieswithdip', 'src': '/static/foodstim60/veggieswithdip.jpg', 'key': 'u', 'origWidth': 409, 'origHeight': 409, 'width': 409, 'height': 409, 'widthPercent': 0.45, 'rescaleHeight': False, 'trialN': 102, 'loaded': True, 'loadedTime': 2676, 'positionName': 'LEFT', 'positionCoords': [328.28, 227.5], 'bid': 4.72}, {'imgObject': {}, 'id': 'tacos', 'src': '/static/foodstim60/tacos.jpg', 'key': 'i', 'origWidth': 411, 'origHeight': 411, 'width': 411, 'height': 411, 'widthPercent': 0.45, 'rescaleHeight': False, 'trialN': 102, 'loaded': True, 'loadedTime': 2682, 'positionName': 'RIGHT', 'positionCoords': [798.72, 226.5], 'bid': 5.24}]",178819.90000009537,1669835560313,veggieswithdip,tacos,4.72,5.24,0.5200000000000005,tacos,1541.5999999046326,1542,1541.7999999523163,True,i,180868.20000004768,2048.2999999523163,1669835562361,2048,HRV,HRV_0233,2022-11-30 19:14:22
103,"[{'imgObject': {}, 'id': 'mashed potato', 'src': '/static/foodstim60/mashed potato.jpg', 'key': 'u', 'origWidth': 409, 'origHeight': 409, 'width': 409, 'height': 409, 'widthPercent': 0.45, 'rescaleHeight': False, 'trialN': 103, 'loaded': True, 'loadedTime': 2691.2000000476837, 'positionName': 'LEFT', 'positionCoords': [328.28, 227.5], 'bid': 5.0200000000000005}, {'imgObject': {}, 'id': 'blackbeanswithrice', 'src': '/static/foodstim60/blackbeanswithrice.jpg', 'key': 'i', 'origWidth': 410, 'origHeight': 410, 'width': 410, 'height': 410, 'widthPercent': 0.45, 'rescaleHeight': False, 'trialN': 103, 'loaded': True, 'loadedTime': 2659.100000143051, 'positionName': 'RIGHT', 'positionCoords': [798.72, 227], 'bid': 5.84}]",180868.40000009537,1669835562362,mashed potato,blackbeanswithrice,5.0200000000000005,5.84,0.8199999999999994,blackbeanswithrice,820.7999999523163,821,821.0,True,i,182195.70000004768,1327.2999999523163,1669835563689,1327,HRV,HRV_0233,2022-11-30 19:14:22
104,"[{'imgObject': {}, 'id': 'sweetpotato', 'src': '/static/foodstim60/sweetpotato.jpg', 'key': 'u', 'origWidth': 410, 'origHeight': 410, 'width': 410, 'height': 410, 'widthPercent': 0.45, 'rescaleHeight': False, 'trialN': 104, 'loaded': True, 'loadedTime': 2688.800000190735, 'positionName': 'LEFT', 'positionCoords': [327.28, 227], 'bid': 4.28}, {'imgObject': {}, 'id': 'seaweed', 'src': '/static/foodstim60/seaweed.jpg', 'key': 'i', 'origWidth': 410, 'origHeight': 410, 'width': 410, 'height': 410, 'widthPercent': 0.45, 'rescaleHeight': False, 'trialN': 104, 'loaded': True, 'loadedTime': 2590.800000190735, 'positionName': 'RIGHT', 'positionCoords': [798.72, 227], 'bid': 4.44}]",182195.90000009537,1669835563689,sweetpotato,seaweed,4.28,4.44,0.16000000000000014,sweetpotato,836.4000000953674,837,836.7999999523163,True,u,183540.10000014305,1344.2000000476837,1669835565033,1344,HRV,HRV_0233,2022-11-30 19:14:22
105,"[{'imgObject': {}, 'id': 'blueberries', 'src': '/static/foodstim60/blueberries.jpg', 'key': 'u', 'origWidth': 411, 'origHeight': 411, 'width': 411, 'height': 411, 'widthPercent': 0.45, 'rescaleHeight': False, 'trialN': 105, 'loaded': True, 'loadedTime': 2698, 'positionName': 'LEFT', 'positionCoords': [326.28, 226.5], 'bid': 5.79}, {'imgObject': {}, 'id': 'rigatoni and sauce', 'src': '/static/foodstim60/rigatoni and sauce.jpg', 'key': 'i', 'origWidth': 410, 'origHeight': 411, 'width': 410, 'height': 411, 'widthPercent': 0.45, 'rescaleHeight': False, 'trialN': 105, 'loaded': True, 'loadedTime': 2597.7000000476837, 'positionName': 'RIGHT', 'positionCoords': [798.72, 226.5], 'bid': 5.79}]",183540.20000004768,1669835565033,blueberries,rigatoni and sauce,5.79,5.79,0.0,rigatoni and sauce,748.5,749,748.7999999523163,True,i,184797.30000019073,1257.1000001430511,1669835566290,1257,HRV,HRV_0233,2022-11-30 19:14:22
106,"[{'imgObject': {}, 'id': 'hotdog w must', 'src': '/static/foodstim60/hotdog w must.jpg', 'key': 'u', 'origWidth': 409, 'origHeight': 409, 'width': 409, 'height': 409, 'widthPercent': 0.45, 'rescaleHeight': False, 'trialN': 106, 'loaded': True, 'loadedTime': 2692.300000190735, 'positionName': 'LEFT', 'positionCoords': [328.28, 227.5], 'bid': 5.03}, {'imgObject': {}, 'id': 'avocado', 'src': '/static/foodstim60/avocado.jpg', 'key': 'i', 'origWidth': 409, 'origHeight': 409, 'width': 409, 'height': 409, 'widthPercent': 0.45, 'rescaleHeight': False, 'trialN': 106, 'loaded': True, 'loadedTime': 2595.800000190735, 'positionName': 'RIGHT', 'positionCoords': [798.72, 227.5], 'bid': 5.87}]",184797.40000009537,1669835566291,hotdog w must,avocado,5.03,5.87,0.8399999999999999,hotdog w must,843.4000000953674,843,843.5999999046326,True,u,186148.70000004768,1351.2999999523163,1669835567642,1351,HRV,HRV_0233,2022-11-30 19:14:22
107,"[{'imgObject': {}, 'id': 'avocado', 'src': '/static/foodstim60/avocado.jpg', 'key': 'u', 'origWidth': 409, 'origHeight': 409, 'width': 409, 'height': 409, 'widthPercent': 0.45, 'rescaleHeight': False, 'trialN': 107, 'loaded': True, 'loadedTime': 2596.2000000476837, 'positionName': 'LEFT', 'positionCoords': [328.28, 227.5], 'bid': 5.87}, {'imgObject': {}, 'id': 'sushi w_condiments', 'src': '/static/foodstim60/sushi w_condiments.jpg', 'key': 'i', 'origWidth': 410, 'origHeight': 410, 'width': 410, 'height': 410, 'widthPercent': 0.45, 'rescaleHeight': False, 'trialN': 107, 'loaded': True, 'loadedTime': 2693.7000000476837, 'positionName': 'RIGHT', 'positionCoords': [798.72, 227], 'bid': 5.72}]",186148.80000019073,1669835567642,avocado,sushi w_condiments,5.87,5.72,-0.15000000000000036,sushi w_condiments,875.5999999046326,876,876.0,True,i,187532.70000004768,1383.8999998569489,1669835569026,1384,HRV,HRV_0233,2022-11-30 19:14:22
