success,trial_type,trial_index,time_elapsed,internal_node_id,Block,TrialNumber,TrialTime,trialTimeDiff,FPS_avg,FPS_med,FPS_mode,TrialDur,winResizeTime,rt,block,button_pressed,MotCoh,MotDir,ColCoh,Color,ChoiceKey,Choice,Accuracy,RT,nFrames,FPS,PPD,missTrial,missTrialMsg,onsetDelay,fullScreenExitTime,canvCenter,TrialType,Score,BlockTrial,stimulus,button_labels,exp,subjectId,date
True,fullscreen,0,5333,0.0-0.0,0.0,1.0,,,,,,,,,,,,,,,,,,,,,,,,,,,,,,,,HRV,HRV_0143,2022-11-30 18:24:03
,wl-check-fps,1,10320,0.0-1.0,0.0,2.0,"[6094.8, 6095.3, 6112.1, 6128.8, 6145.4, 6162, 6178.8, 6195.3, 6212, 6228.7, 6245.6, 6262.2, 6278.8, 6295.5, 6312.1, 6328.7, 6345.4, 6362, 6378.7, 6395.4, 6412, 6428.8, 6445.4, 6462.1, 6479, 6495.5, 6512, 6528.9, 6546.4, 6562, 6578.8, 6595.5, 6612.1, 6628.8, 6645.5, 6662.1, 6678.9, 6695.6, 6712.2, 6728.8, 6745.5, 6762, 6779.6, 6795.4, 6812.1, 6828.7, 6845.4, 6862.3, 6878.9, 6895.5, 6912.1, 6928.7, 6945.5, 6962, 6978.8, 6995.5, 7012, 7028.6, 7045.5, 7062, 7078.8, 7095.5, 7112, 7128.7, 7145.3, 7162.1, 7178.8, 7195.5, 7212.1, 7229, 7245.5, 7262.1, 7278.8, 7295.3, 7312.2, 7328.6, 7345.3, 7362.1, 7379, 7395.5, 7412, 7428.7, 7445.3, 7462, 7478.8, 7495.4, 7512, 7528.8, 7545.3, 7562.1, 7578.6, 7595.4, 7612, 7628.7, 7645.5, 7662.1, 7678.7, 7695.4, 7712.2, 7728.7, 7745.4, 7762.2, 7779.4, 7795.5, 7812, 7828.7, 7845.3, 7862.1, 7878.9, 7895.6, 7912, 7928.8, 7945.4, 7962.1, 7978.8, 7995.6, 8012.1, 8028.8, 8045.5, 8062.2, 8078.9, 8095.3, 8112.1, 8128.7, 8145.5, 8162.1, 8178.7, 8195.4, 8212.2, 8228.9, 8245.3, 8262.1, 8278.9, 8295.6, 8312.1, 8328.8, 8345.4, 8362.1, 8378.7, 8395.5, 8412.2, 8428.9, 8445.4, 8462.3, 8478.9, 8495.6, 8512.1, 8529, 8545.4, 8562.1, 8578.7, 8595.2, 8612.3, 8628.8, 8645.3, 8662, 8678.7, 8695.3, 8712, 8728.9, 8745.4, 8762.1, 8779.5, 8795.5, 8812.2, 8828.9, 8845.4, 8862.1, 8878.8, 8895.5, 8912.1, 8928.8, 8945.4, 8962.1, 8979, 8995.6, 9012.2, 9028.8, 9045.4, 9062, 9078.7, 9095.4, 9112.2, 9128.8, 9145.5, 9162.1, 9178.9, 9195.5, 9212.3, 9228.9, 9245.4, 9262.2, 9278.8, 9295.5, 9312.2, 9328.8, 9345.4, 9362.1, 9378.8, 9395.3, 9412, 9428.7, 9445.3, 9462.1, 9478.8, 9495.5, 9512, 9528.8, 9545.4, 9562, 9578.9, 9595.4, 9612.1, 9628.7, 9645.4, 9661.9, 9678.7, 9695.5, 9712, 9728.8, 9745.6, 9762.3, 9779.6, 9796.1, 9812.1, 9828.7, 9845.4, 9862.1, 9878.8, 9895.5, 9912.1, 9928.9, 9945.5, 9962.2, 9978.8, 9995.4, 10012, 10028.8, 10045.4, 10062.1, 10078.8, 10095.4, 10112, 10128.7, 10145.5, 10162, 10178.7, 10195.2, 10212, 10228.7, 10245.3, 10262.1, 10278.7, 10295.5, 10312.1, 10329.3, 10345.9, 10362.3, 10378.8, 10395.9, 10412.8, 10428.8, 10445.5, 10462.3, 10478.9, 10496, 10512.5, 10529.4, 10545.8, 10562.2, 10578.7, 10595.3, 10612.1, 10628.8, 10645.5, 10662.5, 10679.2, 10695.4, 10712, 10728.7, 10745.5, 10762.3, 10778.9, 10795.5, 10812, 10828.9, 10845.5, 10862.2, 10879.1, 10895.3, 10912, 10928.6, 10945.4, 10962.2, 10978.8, 10995.2, 11011.9, 11028.6, 11045.3, 11062.5]","[0.8, 0.5, 16.8, 16.7, 16.6, 16.6, 16.8, 16.5, 16.7, 16.7, 16.9, 16.6, 16.6, 16.7, 16.6, 16.6, 16.7, 16.6, 16.7, 16.7, 16.6, 16.8, 16.6, 16.7, 16.9, 16.5, 16.5, 16.9, 17.5, 15.6, 16.8, 16.7, 16.6, 16.7, 16.7, 16.6, 16.8, 16.7, 16.6, 16.6, 16.7, 16.5, 17.6, 15.8, 16.7, 16.6, 16.7, 16.9, 16.6, 16.6, 16.6, 16.6, 16.8, 16.5, 16.8, 16.7, 16.5, 16.6, 16.9, 16.5, 16.8, 16.7, 16.5, 16.7, 16.6, 16.8, 16.7, 16.7, 16.6, 16.9, 16.5, 16.6, 16.7, 16.5, 16.9, 16.4, 16.7, 16.8, 16.9, 16.5, 16.5, 16.7, 16.6, 16.7, 16.8, 16.6, 16.6, 16.8, 16.5, 16.8, 16.5, 16.8, 16.6, 16.7, 16.8, 16.6, 16.6, 16.7, 16.8, 16.5, 16.7, 16.8, 17.2, 16.1, 16.5, 16.7, 16.6, 16.8, 16.8, 16.7, 16.4, 16.8, 16.6, 16.7, 16.7, 16.8, 16.5, 16.7, 16.7, 16.7, 16.7, 16.4, 16.8, 16.6, 16.8, 16.6, 16.6, 16.7, 16.8, 16.7, 16.4, 16.8, 16.8, 16.7, 16.5, 16.7, 16.6, 16.7, 16.6, 16.8, 16.7, 16.7, 16.5, 16.9, 16.6, 16.7, 16.5, 16.9, 16.4, 16.7, 16.6, 16.5, 17.1, 16.5, 16.5, 16.7, 16.7, 16.6, 16.7, 16.9, 16.5, 16.7, 17.4, 16, 16.7, 16.7, 16.5, 16.7, 16.7, 16.7, 16.6, 16.7, 16.6, 16.7, 16.9, 16.6, 16.6, 16.6, 16.6, 16.6, 16.7, 16.7, 16.8, 16.6, 16.7, 16.6, 16.8, 16.6, 16.8, 16.6, 16.5, 16.8, 16.6, 16.7, 16.7, 16.6, 16.6, 16.7, 16.7, 16.5, 16.7, 16.7, 16.6, 16.8, 16.7, 16.7, 16.5, 16.8, 16.6, 16.6, 16.9, 16.5, 16.7, 16.6, 16.7, 16.5, 16.8, 16.8, 16.5, 16.8, 16.8, 16.7, 17.3, 16.5, 16, 16.6, 16.7, 16.7, 16.7, 16.7, 16.6, 16.8, 16.6, 16.7, 16.6, 16.6, 16.6, 16.8, 16.6, 16.7, 16.7, 16.6, 16.6, 16.7, 16.8, 16.5, 16.7, 16.5, 16.8, 16.7, 16.6, 16.8, 16.6, 16.8, 16.6, 17.2, 16.6, 16.4, 16.5, 17.1, 16.9, 16, 16.7, 16.8, 16.6, 17.1, 16.5, 16.9, 16.4, 16.4, 16.5, 16.6, 16.8, 16.7, 16.7, 17, 16.7, 16.2, 16.6, 16.7, 16.8, 16.8, 16.6, 16.6, 16.5, 16.9, 16.6, 16.7, 16.9, 16.2, 16.7, 16.6, 16.8, 16.8, 16.6, 16.4, 16.7, 16.7, 16.7, 17.2]",60.0,60.0,60.0,4984.7,[],,,,,,,,,,,,,,,,,,,,,,,,,HRV,HRV_0143,2022-11-30 18:24:03
,wl-html-keyboard-response,2,22730,0.0-2.0-0.0,0.0,3.0,,,,,,,,10393.299999952316,0.0,0,,,,,,,,,,,,,,,,,,,,,,HRV,HRV_0143,2022-11-30 18:24:03
,wl-rdm,3,31803,0.0-3.0-0.0,0.0,4.0,,,,,,,[],,,,0.0,0.0,87.9,0.0,u,0.0,True,759.6000000238419,46.0,60.0,40.0,False,too_early ,3000.0,[],"[960, 540]",ColorTask_Demo,,,,,HRV,HRV_0143,2022-11-30 18:24:03
,wl-rdm,4,36669,0.0-3.0-1.0,0.0,5.0,,,,,,,[],,,,0.0,0.0,87.9,1.0,i,1.0,True,779.5,47.0,60.0,40.0,False,,2000.0,[],"[960, 540]",ColorTask_Demo,,,,,HRV,HRV_0143,2022-11-30 18:24:03
,wl-html-keyboard-response,5,45035,0.0-3.0-2.0,0.0,6.0,,,,,,,,6356.300000071526,0.0,1,,,,,,,,,,,,,,,,,,,,,,HRV,HRV_0143,2022-11-30 18:24:03
,wl-html-keyboard-response,6,53817,0.0-4.0-0.0,0.0,7.0,,,,,,,,6767.600000023842,0.0,0,,,,,,,,,,,,,,,,,,,,,,HRV,HRV_0143,2022-11-30 18:24:03
,wl-html-keyboard-response,7,66028,0.0-5.0-0.0,0.0,8.0,,,,,,,,10202.100000023842,0.0,0,,,,,,,,,,,,,,,,,,,,,,HRV,HRV_0143,2022-11-30 18:24:03
,wl-rdm,8,68136,0.0-6.0-0.0,0.0,9.0,,,,,,,[],,,,,,73.6,1.0,u,0.0,False,784.2000000476837,48.0,60.0,40.0,False,,251.20023587851233,[],"[960, 540]",ColorTask,-1.0,1.0,,,HRV,HRV_0143,2022-11-30 18:24:03
,wl-rdm,9,70370,0.0-6.1-0.1,0.0,10.0,,,,,,,[],,,,,,50.0,1.0,i,1.0,True,865.2000000476837,52.0,60.0,40.0,False,,315.0776443549291,[],"[960, 540]",ColorTask,0.0,2.0,,,HRV,HRV_0143,2022-11-30 18:24:03
,wl-rdm,10,72586,0.0-6.2-0.2,0.0,11.0,,,,,,,[],,,,,,73.6,0.0,u,0.0,True,781.9000000953674,47.0,60.0,40.0,False,,363.17583636584243,[],"[960, 540]",ColorTask,1.0,3.0,,,HRV,HRV_0143,2022-11-30 18:24:03
,wl-rdm,11,74870,0.0-6.3-0.3,0.0,12.0,,,,,,,[],,,,,,62.5,0.0,u,0.0,True,861.6000000238419,52.0,60.0,40.0,False,,365.89422769005546,[],"[960, 540]",ColorTask,2.0,4.0,,,HRV,HRV_0143,2022-11-30 18:24:03
,wl-rdm,12,77053,0.0-6.4-0.4,0.0,13.0,,,,,,,[],,,,,,62.5,0.0,u,0.0,True,812.5,49.0,60.0,40.0,False,,292.15764954219594,[],"[960, 540]",ColorTask,3.0,5.0,,,HRV,HRV_0143,2022-11-30 18:24:03
,wl-rdm,13,79036,0.0-6.5-0.5,0.0,14.0,,,,,,,[],,,,,,56.4,1.0,u,0.0,False,696.1000000238419,42.0,60.0,40.0,False,,229.91090318826465,[],"[960, 540]",ColorTask,2.0,6.0,,,HRV,HRV_0143,2022-11-30 18:24:03
,wl-rdm,14,81436,0.0-6.6-0.6,0.0,15.0,,,,,,,[],,,,,,50.0,0.0,i,1.0,False,1072.0,65.0,60.0,40.0,False,,248.40821476575726,[],"[960, 540]",ColorTask,1.0,7.0,,,HRV,HRV_0143,2022-11-30 18:24:03
,wl-rdm,15,83770,0.0-6.7-0.7,0.0,16.0,,,,,,,[],,,,,,73.6,1.0,i,1.0,True,908.0,55.0,60.0,40.0,False,,333.80458714938663,[],"[960, 540]",ColorTask,2.0,8.0,,,HRV,HRV_0143,2022-11-30 18:24:03
,wl-rdm,16,85936,0.0-6.8-0.8,0.0,17.0,,,,,,,[],,,,,,56.4,0.0,u,0.0,True,859.6999999284744,52.0,60.0,40.0,False,,239.31237936761903,[],"[960, 540]",ColorTask,3.0,9.0,,,HRV,HRV_0143,2022-11-30 18:24:03
,wl-rdm,17,88286,0.0-6.9-0.9,0.0,18.0,,,,,,,[],,,,,,73.6,1.0,i,1.0,True,952.3000000715256,58.0,60.0,40.0,False,,319.92575100361654,[],"[960, 540]",ColorTask,4.0,10.0,,,HRV,HRV_0143,2022-11-30 18:24:03
,wl-rdm,18,90453,0.0-6.10-0.10,0.0,19.0,,,,,,,[],,,,,,50.0,0.0,u,0.0,True,754.7999999523163,46.0,60.0,40.0,False,,320.67345061424777,[],"[960, 540]",ColorTask,5.0,11.0,,,HRV,HRV_0143,2022-11-30 18:24:03
,wl-rdm,19,92670,0.0-6.11-0.11,0.0,20.0,,,,,,,[],,,,,,62.5,0.0,u,0.0,True,786.3000000715256,48.0,60.0,40.0,False,,360.35811296100087,[],"[960, 540]",ColorTask,6.0,12.0,,,HRV,HRV_0143,2022-11-30 18:24:03
,wl-rdm,20,95169,0.0-6.12-0.12,0.0,21.0,,,,,,,[],,,,,,73.6,1.0,i,1.0,True,1024.6999999284744,62.0,60.0,40.0,False,,383.6810423375382,[],"[960, 540]",ColorTask,7.0,13.0,,,HRV,HRV_0143,2022-11-30 18:24:03
,wl-rdm,21,97370,0.0-6.13-0.13,0.0,22.0,,,,,,,[],,,,,,53.2,0.0,i,1.0,False,866.1000000238419,52.0,60.0,40.0,False,,252.28274028375085,[],"[960, 540]",ColorTask,6.0,14.0,,,HRV,HRV_0143,2022-11-30 18:24:03
,wl-rdm,22,99819,0.0-6.14-0.14,0.0,23.0,,,,,,,[],,,,,,53.2,0.0,i,1.0,False,1030.5999999046326,62.0,60.0,40.0,False,,348.25496681458293,[],"[960, 540]",ColorTask,5.0,15.0,,,HRV,HRV_0143,2022-11-30 18:24:03
,wl-rdm,23,101920,0.0-6.15-0.15,0.0,24.0,,,,,,,[],,,,,,87.9,1.0,i,1.0,True,809.8000000715256,49.0,60.0,40.0,False,,212.89023001737402,[],"[960, 540]",ColorTask,6.0,16.0,,,HRV,HRV_0143,2022-11-30 18:24:03
,wl-rdm,24,103920,0.0-6.16-0.16,0.0,25.0,,,,,,,[],,,,,,73.6,0.0,u,0.0,True,693.3999999761581,42.0,60.0,40.0,False,,224.34871432207603,[],"[960, 540]",ColorTask,7.0,17.0,,,HRV,HRV_0143,2022-11-30 18:24:03
,wl-rdm,25,106153,0.0-6.17-0.17,0.0,26.0,,,,,,,[],,,,,,62.5,0.0,u,0.0,True,800.0,48.0,60.0,40.0,False,,358.15827571758916,[],"[960, 540]",ColorTask,8.0,18.0,,,HRV,HRV_0143,2022-11-30 18:24:03
,wl-rdm,26,108270,0.0-6.18-0.18,0.0,27.0,,,,,,,[],,,,,,87.9,1.0,i,1.0,True,771.0,47.0,60.0,40.0,False,,258.278838608739,[],"[960, 540]",ColorTask,9.0,19.0,,,HRV,HRV_0143,2022-11-30 18:24:03
,wl-rdm,27,110353,0.0-6.19-0.19,0.0,28.0,,,,,,,[],,,,,,87.9,0.0,u,0.0,True,774.7999999523163,47.0,60.0,40.0,False,,235.4439468367486,[],"[960, 540]",ColorTask,10.0,20.0,,,HRV,HRV_0143,2022-11-30 18:24:03
,wl-rdm,28,112403,0.0-6.20-0.20,0.0,29.0,,,,,,,[],,,,,,56.4,1.0,i,1.0,True,756.6999999284744,46.0,60.0,40.0,False,,213.2513810576616,[],"[960, 540]",ColorTask,11.0,21.0,,,HRV,HRV_0143,2022-11-30 18:24:03
,wl-rdm,29,115253,0.0-6.21-0.21,0.0,30.0,,,,,,,[],,,,,,53.2,0.0,u,0.0,True,1488.2000000476837,90.0,60.0,40.0,False,,273.8380235081502,[],"[960, 540]",ColorTask,12.0,22.0,,,HRV,HRV_0143,2022-11-30 18:24:03
,wl-rdm,30,117836,0.0-6.22-0.22,0.0,31.0,,,,,,,[],,,,,,50.0,0.0,u,0.0,True,1180.0,71.0,60.0,40.0,False,,319.3332868924025,[],"[960, 540]",ColorTask,13.0,23.0,,,HRV,HRV_0143,2022-11-30 18:24:03
,wl-rdm,31,120202,0.0-6.23-0.23,0.0,32.0,,,,,,,[],,,,,,73.6,0.0,u,0.0,True,914.8999999761581,55.0,60.0,40.0,False,,382.7703114160124,[],"[960, 540]",ColorTask,14.0,24.0,,,HRV,HRV_0143,2022-11-30 18:24:03
,wl-rdm,32,122335,0.0-6.24-0.24,0.0,33.0,,,,,,,[],,,,,,56.4,0.0,u,0.0,True,801.8999998569489,49.0,60.0,40.0,False,,245.67896436047454,[],"[960, 540]",ColorTask,15.0,25.0,,,HRV,HRV_0143,2022-11-30 18:24:03
,wl-rdm,33,124736,0.0-6.25-0.25,0.0,34.0,,,,,,,[],,,,,,50.0,1.0,u,0.0,False,1084.8000000715256,66.0,60.0,40.0,False,,231.8432076429369,[],"[960, 540]",ColorTask,14.0,26.0,,,HRV,HRV_0143,2022-11-30 18:24:03
,wl-rdm,34,126952,0.0-6.26-0.26,0.0,35.0,,,,,,,[],,,,,,87.9,0.0,i,1.0,False,874.6999999284744,53.0,60.0,40.0,False,,266.35929002311394,[],"[960, 540]",ColorTask,13.0,27.0,,,HRV,HRV_0143,2022-11-30 18:24:03
,wl-rdm,35,129069,0.0-6.27-0.27,0.0,36.0,,,,,,,[],,,,,,87.9,0.0,u,0.0,True,820.6000000238419,50.0,60.0,40.0,False,,202.53538499672482,[],"[960, 540]",ColorTask,14.0,28.0,,,HRV,HRV_0143,2022-11-30 18:24:03
,wl-rdm,36,131152,0.0-6.28-0.28,0.0,37.0,,,,,,,[],,,,,,73.6,1.0,i,1.0,True,751.0999999046326,46.0,60.0,40.0,False,,250.82960959768516,[],"[960, 540]",ColorTask,15.0,29.0,,,HRV,HRV_0143,2022-11-30 18:24:03
,wl-rdm,37,133219,0.0-6.29-0.29,0.0,38.0,,,,,,,[],,,,,,56.4,1.0,i,1.0,True,689.5,42.0,60.0,40.0,False,,289.64288156643835,[],"[960, 540]",ColorTask,16.0,30.0,,,HRV,HRV_0143,2022-11-30 18:24:03
,wl-rdm,38,135236,0.0-6.30-0.30,0.0,39.0,,,,,,,[],,,,,,73.6,1.0,i,1.0,True,721.3999999761581,44.0,60.0,40.0,False,,220.47276423963675,[],"[960, 540]",ColorTask,17.0,31.0,,,HRV,HRV_0143,2022-11-30 18:24:03
,wl-rdm,39,137402,0.0-6.31-0.31,0.0,40.0,,,,,,,[],,,,,,73.6,0.0,u,0.0,True,731.5,44.0,60.0,40.0,False,,354.812797537025,[],"[960, 540]",ColorTask,18.0,32.0,,,HRV,HRV_0143,2022-11-30 18:24:03
,wl-rdm,40,139602,0.0-6.32-0.32,0.0,41.0,,,,,,,[],,,,,,87.9,1.0,i,1.0,True,823.6000000238419,50.0,60.0,40.0,False,,287.0528868263414,[],"[960, 540]",ColorTask,19.0,33.0,,,HRV,HRV_0143,2022-11-30 18:24:03
,wl-rdm,41,141969,0.0-6.33-0.33,0.0,42.0,,,,,,,[],,,,,,50.0,1.0,u,0.0,False,885.1000000238419,54.0,60.0,40.0,False,,389.05295975911076,[],"[960, 540]",ColorTask,18.0,34.0,,,HRV,HRV_0143,2022-11-30 18:24:03
,wl-rdm,42,144269,0.0-6.34-0.34,0.0,43.0,,,,,,,[],,,,,,50.0,1.0,i,1.0,True,961.8000000715256,58.0,60.0,40.0,False,,252.53444985233693,[],"[960, 540]",ColorTask,19.0,35.0,,,HRV,HRV_0143,2022-11-30 18:24:03
,wl-rdm,43,146452,0.0-6.35-0.35,0.0,44.0,,,,,,,[],,,,,,62.5,0.0,u,0.0,True,879.5,53.0,60.0,40.0,False,,217.3315776229267,[],"[960, 540]",ColorTask,20.0,36.0,,,HRV,HRV_0143,2022-11-30 18:24:03
,wl-rdm,44,148452,0.0-6.36-0.36,0.0,45.0,,,,,,,[],,,,,,87.9,0.0,u,0.0,True,645.8000000715256,39.0,60.0,40.0,False,,280.31167450541034,[],"[960, 540]",ColorTask,21.0,37.0,,,HRV,HRV_0143,2022-11-30 18:24:03
,wl-rdm,45,150719,0.0-6.37-0.37,0.0,46.0,,,,,,,[],,,,,,56.4,1.0,u,0.0,False,826.5999999046326,50.0,60.0,40.0,False,,363.4387655540926,[],"[960, 540]",ColorTask,20.0,38.0,,,HRV,HRV_0143,2022-11-30 18:24:03
,wl-rdm,46,152869,0.0-6.38-0.38,0.0,47.0,,,,,,,[],,,,,,87.9,1.0,i,1.0,True,854.3999999761581,52.0,60.0,40.0,False,,200.25100641973125,[],"[960, 540]",ColorTask,21.0,39.0,,,HRV,HRV_0143,2022-11-30 18:24:03
,wl-rdm,47,155152,0.0-6.39-0.39,0.0,48.0,,,,,,,[],,,,,,50.0,0.0,u,0.0,True,900.1000000238419,54.0,60.0,40.0,False,,308.50204915131053,[],"[960, 540]",ColorTask,22.0,40.0,,,HRV,HRV_0143,2022-11-30 18:24:03
,wl-rdm,48,157552,0.0-6.40-0.40,0.0,49.0,,,,,,,[],,,,,,62.5,1.0,i,1.0,True,983.6999999284744,60.0,60.0,40.0,False,,327.76075565751285,[],"[960, 540]",ColorTask,23.0,41.0,,,HRV,HRV_0143,2022-11-30 18:24:03
,wl-rdm,49,159936,0.0-6.41-0.41,0.0,50.0,,,,,,,[],,,,,,87.9,0.0,u,0.0,True,1068.1000000238419,65.0,60.0,40.0,False,,224.81445282155946,[],"[960, 540]",ColorTask,24.0,42.0,,,HRV,HRV_0143,2022-11-30 18:24:03
,wl-rdm,50,162352,0.0-6.42-0.42,0.0,51.0,,,,,,,[],,,,,,62.5,1.0,i,1.0,True,1041.8000000715256,63.0,60.0,40.0,False,,298.51009923293793,[],"[960, 540]",ColorTask,25.0,43.0,,,HRV,HRV_0143,2022-11-30 18:24:03
,wl-rdm,51,164652,0.0-6.43-0.43,0.0,52.0,,,,,,,[],,,,,,87.9,1.0,i,1.0,True,895.5,54.0,60.0,40.0,False,,344.5040944646786,[],"[960, 540]",ColorTask,26.0,44.0,,,HRV,HRV_0143,2022-11-30 18:24:03
,wl-rdm,52,167202,0.0-6.44-0.44,0.0,53.0,,,,,,,[],,,,,,62.5,1.0,u,0.0,False,1130.6000000238419,68.0,60.0,40.0,False,,361.1082362014189,[],"[960, 540]",ColorTask,25.0,45.0,,,HRV,HRV_0143,2022-11-30 18:24:03
,wl-rdm,53,169519,0.0-6.45-0.45,0.0,54.0,,,,,,,[],,,,,,73.6,0.0,u,0.0,True,1001.3000000715256,61.0,60.0,40.0,False,,239.53034443048907,[],"[960, 540]",ColorTask,26.0,46.0,,,HRV,HRV_0143,2022-11-30 18:24:03
,wl-rdm,54,171885,0.0-6.46-0.46,0.0,55.0,,,,,,,[],,,,,,62.5,1.0,i,1.0,True,1027.8999999761581,62.0,60.0,40.0,False,,255.6333643748172,[],"[960, 540]",ColorTask,27.0,47.0,,,HRV,HRV_0143,2022-11-30 18:24:03
,wl-rdm,55,174436,0.0-6.47-0.47,0.0,56.0,,,,,,,[],,,,,,53.2,1.0,i,1.0,True,1255.2000000476837,76.0,60.0,40.0,False,,215.40018652228846,[],"[960, 540]",ColorTask,28.0,48.0,,,HRV,HRV_0143,2022-11-30 18:24:03
,wl-rdm,56,176669,0.0-6.48-0.48,0.0,57.0,,,,,,,[],,,,,,87.9,0.0,u,0.0,True,787.6999999284744,48.0,60.0,40.0,False,,351.9056525138614,[],"[960, 540]",ColorTask,29.0,49.0,,,HRV,HRV_0143,2022-11-30 18:24:03
,wl-rdm,57,178802,0.0-6.49-0.49,0.0,58.0,,,,,,,[],,,,,,53.2,0.0,i,1.0,False,823.2999999523163,50.0,60.0,40.0,False,,226.06479110305014,[],"[960, 540]",ColorTask,28.0,50.0,,,HRV,HRV_0143,2022-11-30 18:24:03
,wl-rdm,58,180802,0.0-6.50-0.50,0.0,59.0,,,,,,,[],,,,,,87.9,1.0,u,0.0,False,581.6000000238419,35.0,60.0,40.0,False,,359.0449622030983,[],"[960, 540]",ColorTask,27.0,51.0,,,HRV,HRV_0143,2022-11-30 18:24:03
,wl-rdm,59,183352,0.0-6.51-0.51,0.0,60.0,,,,,,,[],,,,,,73.6,1.0,i,1.0,True,1191.3999999761581,72.0,60.0,40.0,False,,287.3702530351305,[],"[960, 540]",ColorTask,28.0,52.0,,,HRV,HRV_0143,2022-11-30 18:24:03
,wl-rdm,60,185936,0.0-6.52-0.52,0.0,61.0,,,,,,,[],,,,,,53.2,0.0,u,0.0,True,1142.5,69.0,60.0,40.0,False,,359.9447658841176,[],"[960, 540]",ColorTask,29.0,53.0,,,HRV,HRV_0143,2022-11-30 18:24:03
,wl-rdm,61,188835,0.0-6.53-0.53,0.0,62.0,,,,,,,[],,,,,,62.5,1.0,i,1.0,True,1430.5,86.0,60.0,40.0,False,,387.5197438374421,[],"[960, 540]",ColorTask,30.0,54.0,,,HRV,HRV_0143,2022-11-30 18:24:03
,wl-rdm,62,191236,0.0-6.54-0.54,0.0,63.0,,,,,,,[],,,,,,50.0,0.0,u,0.0,True,1029.3999999761581,62.0,60.0,40.0,False,,300.5325466523997,[],"[960, 540]",ColorTask,31.0,55.0,,,HRV,HRV_0143,2022-11-30 18:24:03
,wl-rdm,63,193469,0.0-6.55-0.55,0.0,64.0,,,,,,,[],,,,,,53.2,1.0,u,0.0,False,895.1999999284744,54.0,60.0,40.0,False,,251.35555641240308,[],"[960, 540]",ColorTask,30.0,56.0,,,HRV,HRV_0143,2022-11-30 18:24:03
,wl-rdm,64,196069,0.0-6.56-0.56,0.0,65.0,,,,,,,[],,,,,,62.5,1.0,i,1.0,True,1311.8999999761581,79.0,60.0,40.0,False,,214.55912285239756,[],"[960, 540]",ColorTask,31.0,57.0,,,HRV,HRV_0143,2022-11-30 18:24:03
,wl-rdm,65,198535,0.0-6.57-0.57,0.0,66.0,,,,,,,[],,,,,,73.6,1.0,i,1.0,True,1009.1000000238419,61.0,60.0,40.0,False,,372.35252774481614,[],"[960, 540]",ColorTask,32.0,58.0,,,HRV,HRV_0143,2022-11-30 18:24:03
,wl-rdm,66,200969,0.0-6.58-0.58,0.0,67.0,,,,,,,[],,,,,,56.4,0.0,u,0.0,True,1165.5999999046326,70.0,60.0,40.0,False,,211.28997200686473,[],"[960, 540]",ColorTask,33.0,59.0,,,HRV,HRV_0143,2022-11-30 18:24:03
,wl-rdm,67,203719,0.0-6.59-0.59,0.0,68.0,,,,,,,[],,,,,,56.4,1.0,u,0.0,False,1309.2000000476837,79.0,60.0,40.0,False,,381.99099051785026,[],"[960, 540]",ColorTask,32.0,60.0,,,HRV,HRV_0143,2022-11-30 18:24:03
,wl-rdm,68,206169,0.0-6.60-0.60,0.0,69.0,,,,,,,[],,,,,,53.2,0.0,i,1.0,False,1165.2000000476837,70.0,60.0,40.0,False,,228.10904694585616,[],"[960, 540]",ColorTask,31.0,61.0,,,HRV,HRV_0143,2022-11-30 18:24:03
,wl-rdm,69,208552,0.0-6.61-0.61,0.0,70.0,,,,,,,[],,,,,,56.4,0.0,u,0.0,True,1091.8999999761581,66.0,60.0,40.0,False,,215.19423275743424,[],"[960, 540]",ColorTask,32.0,62.0,,,HRV,HRV_0143,2022-11-30 18:24:03
,wl-rdm,70,210669,0.0-6.62-0.62,0.0,71.0,,,,,,,[],,,,,,87.9,1.0,i,1.0,True,811.0,49.0,60.0,40.0,False,,249.62362093225553,[],"[960, 540]",ColorTask,33.0,63.0,,,HRV,HRV_0143,2022-11-30 18:24:03
,wl-rdm,71,213002,0.0-6.63-0.63,0.0,72.0,,,,,,,[],,,,,,56.4,0.0,u,0.0,True,1056.2999999523163,64.0,60.0,40.0,False,,204.32793253008415,[],"[960, 540]",ColorTask,34.0,64.0,,,HRV,HRV_0143,2022-11-30 18:24:03
,wl-rdm,72,216019,0.0-6.64-0.64,0.0,73.0,,,,,,,[],,,,,,56.4,1.0,i,1.0,True,1638.4999998807907,99.0,60.0,40.0,False,,308.22077077942583,[],"[960, 540]",ColorTask,35.0,65.0,,,HRV,HRV_0143,2022-11-30 18:24:03
,wl-rdm,73,218352,0.0-6.65-0.65,0.0,74.0,,,,,,,[],,,,,,62.5,1.0,u,0.0,False,1034.0,62.0,60.0,40.0,False,,227.0423723184992,[],"[960, 540]",ColorTask,34.0,66.0,,,HRV,HRV_0143,2022-11-30 18:24:03
,wl-rdm,74,220752,0.0-6.66-0.66,0.0,75.0,,,,,,,[],,,,,,73.6,0.0,u,0.0,True,1074.7999999523163,65.0,60.0,40.0,False,,257.41769790302357,[],"[960, 540]",ColorTask,35.0,67.0,,,HRV,HRV_0143,2022-11-30 18:24:03
,wl-rdm,75,223019,0.0-6.67-0.67,0.0,76.0,,,,,,,[],,,,,,62.5,1.0,i,1.0,True,880.6000000238419,53.0,60.0,40.0,False,,318.11392963866143,[],"[960, 540]",ColorTask,36.0,68.0,,,HRV,HRV_0143,2022-11-30 18:24:03
,wl-rdm,76,225385,0.0-6.68-0.68,0.0,77.0,,,,,,,[],,,,,,50.0,0.0,u,0.0,True,974.3000000715256,59.0,60.0,40.0,False,,307.64837370941643,[],"[960, 540]",ColorTask,37.0,69.0,,,HRV,HRV_0143,2022-11-30 18:24:03
,wl-rdm,77,227719,0.0-6.69-0.69,0.0,78.0,,,,,,,[],,,,,,56.4,0.0,u,0.0,True,935.2000000476837,57.0,60.0,40.0,False,,307.2494393024825,[],"[960, 540]",ColorTask,38.0,70.0,,,HRV,HRV_0143,2022-11-30 18:24:03
,wl-rdm,78,230202,0.0-6.70-0.70,0.0,79.0,,,,,,,[],,,,,,56.4,1.0,u,0.0,False,1197.8000000715256,72.0,60.0,40.0,False,,205.41194987576282,[],"[960, 540]",ColorTask,37.0,71.0,,,HRV,HRV_0143,2022-11-30 18:24:03
,wl-rdm,79,232785,0.0-6.71-0.71,0.0,80.0,,,,,,,[],,,,,,56.4,1.0,u,0.0,False,1157.2000000476837,70.0,60.0,40.0,False,,336.1851692530986,[],"[960, 540]",ColorTask,36.0,72.0,,,HRV,HRV_0143,2022-11-30 18:24:03
,wl-rdm,80,235369,0.0-6.72-0.72,0.0,81.0,,,,,,,[],,,,,,53.2,0.0,u,0.0,True,1132.3000000715256,68.0,60.0,40.0,False,,388.1889033392388,[],"[960, 540]",ColorTask,37.0,73.0,,,HRV,HRV_0143,2022-11-30 18:24:03
,wl-rdm,81,237619,0.0-6.73-0.73,0.0,82.0,,,,,,,[],,,,,,62.5,0.0,u,0.0,True,772.5999999046326,47.0,60.0,40.0,False,,387.3675466943582,[],"[960, 540]",ColorTask,38.0,74.0,,,HRV,HRV_0143,2022-11-30 18:24:03
,wl-rdm,82,240203,0.0-6.74-0.74,0.0,83.0,,,,,,,[],,,,,,73.6,0.0,u,0.0,True,1280.5,77.0,60.0,40.0,False,,233.61229408439215,[],"[960, 540]",ColorTask,39.0,75.0,,,HRV,HRV_0143,2022-11-30 18:24:03
,wl-rdm,83,242886,0.0-6.75-0.75,0.0,84.0,,,,,,,[],,,,,,62.5,0.0,u,0.0,True,1219.9000000953674,74.0,60.0,40.0,False,,371.6175586036416,[],"[960, 540]",ColorTask,40.0,76.0,,,HRV,HRV_0143,2022-11-30 18:24:03
,wl-rdm,84,245786,0.0-6.76-0.76,0.0,85.0,,,,,,,[],,,,,,56.4,0.0,u,0.0,True,1532.2000000476837,92.0,60.0,40.0,False,,292.87939132334395,[],"[960, 540]",ColorTask,41.0,77.0,,,HRV,HRV_0143,2022-11-30 18:24:03
,wl-rdm,85,247970,0.0-6.77-0.77,0.0,86.0,,,,,,,[],,,,,,73.6,0.0,u,0.0,True,865.9000000953674,52.0,60.0,40.0,False,,249.02464062279836,[],"[960, 540]",ColorTask,42.0,78.0,,,HRV,HRV_0143,2022-11-30 18:24:03
,wl-rdm,86,250653,0.0-6.78-0.78,0.0,87.0,,,,,,,[],,,,,,53.2,0.0,u,0.0,True,1320.5,80.0,60.0,40.0,False,,285.1274141397418,[],"[960, 540]",ColorTask,43.0,79.0,,,HRV,HRV_0143,2022-11-30 18:24:03
,wl-rdm,87,252903,0.0-6.79-0.79,0.0,88.0,,,,,,,[],,,,,,53.2,1.0,u,0.0,False,952.3999999761581,58.0,60.0,40.0,False,,208.49850990073492,[],"[960, 540]",ColorTask,42.0,80.0,,,HRV,HRV_0143,2022-11-30 18:24:03
,wl-rdm,88,255353,0.0-6.80-0.80,0.0,89.0,,,,,,,[],,,,,,62.5,0.0,u,0.0,True,1091.1999999284744,66.0,60.0,40.0,False,,290.204900520202,[],"[960, 540]",ColorTask,43.0,81.0,,,HRV,HRV_0143,2022-11-30 18:24:03
,wl-rdm,89,257470,0.0-6.81-0.81,0.0,90.0,,,,,,,[],,,,,,62.5,0.0,u,0.0,True,804.6000000238419,49.0,60.0,40.0,False,,222.933579611271,[],"[960, 540]",ColorTask,44.0,82.0,,,HRV,HRV_0143,2022-11-30 18:24:03
,wl-rdm,90,260086,0.0-6.82-0.82,0.0,91.0,,,,,,,[],,,,,,53.2,1.0,i,1.0,True,1270.0000001192093,77.0,60.0,40.0,False,,251.00538604993173,[],"[960, 540]",ColorTask,45.0,83.0,,,HRV,HRV_0143,2022-11-30 18:24:03
,wl-rdm,91,262536,0.0-6.83-0.83,0.0,92.0,,,,,,,[],,,,,,87.9,1.0,i,1.0,True,1009.0999999046326,61.0,60.0,40.0,False,,362.5702092646386,[],"[960, 540]",ColorTask,46.0,84.0,,,HRV,HRV_0143,2022-11-30 18:24:03
,wl-rdm,92,265253,0.0-6.84-0.84,0.0,93.0,,,,,,,[],,,,,,53.2,1.0,i,1.0,True,1337.8999999761581,81.0,60.0,40.0,False,,284.425379387618,[],"[960, 540]",ColorTask,47.0,85.0,,,HRV,HRV_0143,2022-11-30 18:24:03
,wl-rdm,93,267670,0.0-6.85-0.85,0.0,94.0,,,,,,,[],,,,,,62.5,1.0,u,0.0,False,1127.8000000715256,68.0,60.0,40.0,False,,221.2740857083508,[],"[960, 540]",ColorTask,46.0,86.0,,,HRV,HRV_0143,2022-11-30 18:24:03
,wl-rdm,94,270186,0.0-6.86-0.86,0.0,95.0,,,,,,,[],,,,,,50.0,1.0,u,0.0,False,1214.5999999046326,73.0,60.0,40.0,False,,241.30226740174805,[],"[960, 540]",ColorTask,45.0,87.0,,,HRV,HRV_0143,2022-11-30 18:24:03
,wl-rdm,95,272687,0.0-6.87-0.87,0.0,96.0,,,,,,,[],,,,,,87.9,0.0,u,0.0,True,1077.0999999046326,65.0,60.0,40.0,False,,365.0220500507752,[],"[960, 540]",ColorTask,46.0,88.0,,,HRV,HRV_0143,2022-11-30 18:24:03
,wl-rdm,96,274636,0.0-6.88-0.88,0.0,97.0,,,,,,,[],,,,,,87.9,0.0,u,0.0,True,662.6999999284744,40.0,60.0,40.0,False,,226.86754116363596,[],"[960, 540]",ColorTask,47.0,89.0,,,HRV,HRV_0143,2022-11-30 18:24:03
,wl-rdm,97,276870,0.0-6.89-0.89,0.0,98.0,,,,,,,[],,,,,,53.2,1.0,i,1.0,True,770.6999999284744,47.0,60.0,40.0,False,,376.77870064824265,[],"[960, 540]",ColorTask,48.0,90.0,,,HRV,HRV_0143,2022-11-30 18:24:03
,wl-rdm,98,279453,0.0-6.90-0.90,0.0,99.0,,,,,,,[],,,,,,50.0,1.0,u,0.0,False,1121.6999999284744,68.0,60.0,40.0,False,,367.5907392885693,[],"[960, 540]",ColorTask,47.0,91.0,,,HRV,HRV_0143,2022-11-30 18:24:03
,wl-rdm,99,281720,0.0-6.91-0.91,0.0,100.0,,,,,,,[],,,,,,50.0,0.0,u,0.0,True,968.6000000238419,59.0,60.0,40.0,False,,228.54882933364672,[],"[960, 540]",ColorTask,48.0,92.0,,,HRV,HRV_0143,2022-11-30 18:24:03
,wl-rdm,100,284020,0.0-6.92-0.92,0.0,101.0,,,,,,,[],,,,,,56.4,1.0,i,1.0,True,939.2999999523163,57.0,60.0,40.0,False,,280.1411854102642,[],"[960, 540]",ColorTask,49.0,93.0,,,HRV,HRV_0143,2022-11-30 18:24:03
,wl-rdm,101,286203,0.0-6.93-0.93,0.0,102.0,,,,,,,[],,,,,,50.0,0.0,i,1.0,False,797.1000000238419,48.0,60.0,40.0,False,,322.34543505626675,[],"[960, 540]",ColorTask,48.0,94.0,,,HRV,HRV_0143,2022-11-30 18:24:03
,wl-rdm,102,288803,0.0-6.94-0.94,0.0,103.0,,,,,,,[],,,,,,50.0,1.0,u,0.0,False,1280.7999999523163,77.0,60.0,40.0,False,,262.3811374447891,[],"[960, 540]",ColorTask,47.0,95.0,,,HRV,HRV_0143,2022-11-30 18:24:03
,wl-rdm,103,291503,0.0-6.95-0.95,0.0,104.0,,,,,,,[],,,,,,50.0,0.0,i,1.0,False,1319.5,80.0,60.0,40.0,False,,294.8037762668885,[],"[960, 540]",ColorTask,46.0,96.0,,,HRV,HRV_0143,2022-11-30 18:24:03
,wl-rdm,104,293903,0.0-6.96-0.96,0.0,105.0,,,,,,,[],,,,,,56.4,0.0,u,0.0,True,1019.1000000238419,62.0,60.0,40.0,False,,289.89004717799054,[],"[960, 540]",ColorTask,47.0,97.0,,,HRV,HRV_0143,2022-11-30 18:24:03
,wl-rdm,105,296153,0.0-6.97-0.97,0.0,106.0,,,,,,,[],,,,,,73.6,0.0,u,0.0,True,799.1000000238419,48.0,60.0,40.0,False,,383.4997565007412,[],"[960, 540]",ColorTask,48.0,98.0,,,HRV,HRV_0143,2022-11-30 18:24:03
,wl-rdm,106,298453,0.0-6.98-0.98,0.0,107.0,,,,,,,[],,,,,,53.2,1.0,i,1.0,True,961.7000000476837,58.0,60.0,40.0,False,,279.3050007890529,[],"[960, 540]",ColorTask,49.0,99.0,,,HRV,HRV_0143,2022-11-30 18:24:03
,wl-rdm,107,301086,0.0-6.99-0.99,0.0,108.0,,,,,,,[],,,,,,53.2,0.0,u,0.0,True,1219.9000000953674,74.0,60.0,40.0,False,,332.32637262681567,[],"[960, 540]",ColorTask,50.0,100.0,,,HRV,HRV_0143,2022-11-30 18:24:03
,wl-rdm,108,303736,0.0-6.100-0.100,0.0,109.0,,,,,,,[],,,,,,73.6,1.0,i,1.0,True,1352.1000000238419,82.0,60.0,40.0,False,,205.47966140779042,[],"[960, 540]",ColorTask,51.0,101.0,,,HRV,HRV_0143,2022-11-30 18:24:03
,wl-rdm,109,306203,0.0-6.101-0.101,0.0,110.0,,,,,,,[],,,,,,87.9,0.0,u,0.0,True,1055.8000000715256,64.0,60.0,40.0,False,,339.33468751578516,[],"[960, 540]",ColorTask,52.0,102.0,,,HRV,HRV_0143,2022-11-30 18:24:03
,wl-rdm,110,308753,0.0-6.102-0.102,0.0,111.0,,,,,,,[],,,,,,56.4,0.0,u,0.0,True,1165.7999999523163,70.0,60.0,40.0,False,,321.2313349567189,[],"[960, 540]",ColorTask,53.0,103.0,,,HRV,HRV_0143,2022-11-30 18:24:03
,wl-rdm,111,311236,0.0-6.103-0.103,0.0,112.0,,,,,,,[],,,,,,53.2,1.0,u,0.0,False,1145.8999999761581,69.0,60.0,40.0,False,,275.6250474650294,[],"[960, 540]",ColorTask,52.0,104.0,,,HRV,HRV_0143,2022-11-30 18:24:03
,wl-rdm,112,313953,0.0-6.104-0.104,0.0,113.0,,,,,,,[],,,,,,53.2,1.0,u,0.0,False,1401.3999999761581,85.0,60.0,40.0,False,,226.79415090698356,[],"[960, 540]",ColorTask,51.0,105.0,,,HRV,HRV_0143,2022-11-30 18:24:03
,wl-rdm,113,316253,0.0-6.105-0.105,0.0,114.0,,,,,,,[],,,,,,50.0,1.0,i,1.0,True,887.8999999761581,54.0,60.0,40.0,False,,325.21357652462217,[],"[960, 540]",ColorTask,52.0,106.0,,,HRV,HRV_0143,2022-11-30 18:24:03
,wl-rdm,114,318153,0.0-6.106-0.106,0.0,115.0,,,,,,,[],,,,,,87.9,1.0,i,1.0,True,599.8999999761581,36.0,60.0,40.0,False,,227.23943334393186,[],"[960, 540]",ColorTask,53.0,107.0,,,HRV,HRV_0143,2022-11-30 18:24:03
,wl-rdm,115,320236,0.0-6.107-0.107,0.0,116.0,,,,,,,[],,,,,,50.0,1.0,u,0.0,False,787.6000000238419,48.0,60.0,40.0,False,,227.6478507196452,[],"[960, 540]",ColorTask,52.0,108.0,,,HRV,HRV_0143,2022-11-30 18:24:03
,wl-html-keyboard-response,116,356077,0.0-7.0-0.0,1.0,116.0,,,,,,,,33829.299999952316,1.0,0,,,,,,,,,,,,True,undefinedblurEvent ,,,,,,,,,HRV,HRV_0143,2022-11-30 18:24:03
,wl-rdm,117,358253,0.0-8.0-0.0,1.0,117.0,,,,,,,[],,,,,,56.4,0.0,u,0.0,True,854.5999999046326,52.0,60.0,40.0,False,,237.8873431167716,[],"[960, 540]",ColorTask,53.0,1.0,,,HRV,HRV_0143,2022-11-30 18:24:03
,wl-rdm,118,360469,0.0-8.1-0.1,1.0,118.0,,,,,,,[],,,,,,62.5,0.0,u,0.0,True,845.0,51.0,60.0,40.0,False,,287.84323227264645,[],"[960, 540]",ColorTask,54.0,2.0,,,HRV,HRV_0143,2022-11-30 18:24:03
,wl-rdm,119,362702,0.0-8.2-0.2,1.0,119.0,,,,,,,[],,,,,,50.0,0.0,i,1.0,False,852.5,52.0,60.0,40.0,False,,296.6388459103997,[],"[960, 540]",ColorTask,53.0,3.0,,,HRV,HRV_0143,2022-11-30 18:24:03
,wl-rdm,120,364619,0.0-8.3-0.3,1.0,120.0,,,,,,,[],,,,,,87.9,0.0,u,0.0,True,530.3000000715256,32.0,60.0,40.0,False,,324.8740383131494,[],"[960, 540]",ColorTask,54.0,4.0,,,HRV,HRV_0143,2022-11-30 18:24:03
,wl-rdm,121,366936,0.0-8.4-0.4,1.0,121.0,,,,,,,[],,,,,,50.0,0.0,i,1.0,False,1001.7999999523163,61.0,60.0,40.0,False,,224.55388161803933,[],"[960, 540]",ColorTask,53.0,5.0,,,HRV,HRV_0143,2022-11-30 18:24:03
,wl-rdm,122,368886,0.0-8.5-0.5,1.0,122.0,,,,,,,[],,,,,,50.0,1.0,u,0.0,False,644.7999999523163,39.0,60.0,40.0,False,,223.16288300022583,[],"[960, 540]",ColorTask,52.0,6.0,,,HRV,HRV_0143,2022-11-30 18:24:03
,wl-rdm,123,370986,0.0-8.6-0.6,1.0,123.0,,,,,,,[],,,,,,87.9,0.0,u,0.0,True,730.9000000953674,44.0,60.0,40.0,False,,314.2409455701737,[],"[960, 540]",ColorTask,53.0,7.0,,,HRV,HRV_0143,2022-11-30 18:24:03
,wl-rdm,124,373352,0.0-8.7-0.7,1.0,124.0,,,,,,,[],,,,,,50.0,1.0,u,0.0,False,966.6999999284744,58.0,60.0,40.0,False,,324.3963403406091,[],"[960, 540]",ColorTask,52.0,8.0,,,HRV,HRV_0143,2022-11-30 18:24:03
,wl-rdm,125,375336,0.0-8.8-0.8,1.0,125.0,,,,,,,[],,,,,,56.4,1.0,i,1.0,True,601.0,37.0,60.0,40.0,False,,314.87778481196176,[],"[960, 540]",ColorTask,53.0,9.0,,,HRV,HRV_0143,2022-11-30 18:24:03
,wl-rdm,126,377203,0.0-8.9-0.9,1.0,126.0,,,,,,,[],,,,,,87.9,1.0,i,1.0,True,563.7000000476837,34.0,60.0,40.0,False,,247.0524253661148,[],"[960, 540]",ColorTask,54.0,10.0,,,HRV,HRV_0143,2022-11-30 18:24:03
,wl-rdm,127,379286,0.0-8.10-0.10,1.0,127.0,,,,,,,[],,,,,,56.4,0.0,u,0.0,True,802.5999999046326,49.0,60.0,40.0,False,,214.09105323927716,[],"[960, 540]",ColorTask,55.0,11.0,,,HRV,HRV_0143,2022-11-30 18:24:03
,wl-rdm,128,381802,0.0-8.11-0.11,1.0,128.0,,,,,,,[],,,,,,62.5,0.0,i,1.0,False,1106.6000000238419,67.0,60.0,40.0,False,,332.3157578010352,[],"[960, 540]",ColorTask,54.0,12.0,,,HRV,HRV_0143,2022-11-30 18:24:03
,wl-rdm,129,384002,0.0-8.12-0.12,1.0,129.0,,,,,,,[],,,,,,73.6,0.0,u,0.0,True,823.2999999523163,50.0,60.0,40.0,False,,285.88651446663056,[],"[960, 540]",ColorTask,55.0,13.0,,,HRV,HRV_0143,2022-11-30 18:24:03
,wl-rdm,130,386252,0.0-8.13-0.13,1.0,130.0,,,,,,,[],,,,,,62.5,1.0,i,1.0,True,946.3000000715256,57.0,60.0,40.0,False,,218.46016964471136,[],"[960, 540]",ColorTask,56.0,14.0,,,HRV,HRV_0143,2022-11-30 18:24:03
,wl-rdm,131,388202,0.0-8.14-0.14,1.0,131.0,,,,,,,[],,,,,,87.9,0.0,u,0.0,True,630.8999999761581,38.0,60.0,40.0,False,,262.4157549303302,[],"[960, 540]",ColorTask,57.0,15.0,,,HRV,HRV_0143,2022-11-30 18:24:03
,wl-rdm,132,390153,0.0-8.15-0.15,1.0,132.0,,,,,,,[],,,,,,87.9,1.0,i,1.0,True,665.6000000238419,40.0,60.0,40.0,False,,229.10489660507116,[],"[960, 540]",ColorTask,58.0,16.0,,,HRV,HRV_0143,2022-11-30 18:24:03
,wl-rdm,133,392253,0.0-8.16-0.16,1.0,133.0,,,,,,,[],,,,,,73.6,0.0,u,0.0,True,754.6999999284744,46.0,60.0,40.0,False,,250.28566207566638,[],"[960, 540]",ColorTask,59.0,17.0,,,HRV,HRV_0143,2022-11-30 18:24:03
,wl-rdm,134,394486,0.0-8.17-0.17,1.0,134.0,,,,,,,[],,,,,,50.0,0.0,i,1.0,False,893.9000000953674,54.0,60.0,40.0,False,,277.35632971546147,[],"[960, 540]",ColorTask,58.0,18.0,,,HRV,HRV_0143,2022-11-30 18:24:03
,wl-rdm,135,396586,0.0-8.18-0.18,1.0,135.0,,,,,,,[],,,,,,62.5,1.0,u,0.0,False,791.3000000715256,48.0,60.0,40.0,False,,221.83935323585564,[],"[960, 540]",ColorTask,57.0,19.0,,,HRV,HRV_0143,2022-11-30 18:24:03
,wl-rdm,136,398786,0.0-8.19-0.19,1.0,136.0,,,,,,,[],,,,,,56.4,1.0,i,1.0,True,807.2999999523163,49.0,60.0,40.0,False,,311.96807475229895,[],"[960, 540]",ColorTask,58.0,20.0,,,HRV,HRV_0143,2022-11-30 18:24:03
,wl-rdm,137,401169,0.0-8.20-0.20,1.0,137.0,,,,,,,[],,,,,,56.4,1.0,i,1.0,True,984.3999999761581,60.0,60.0,40.0,False,,310.4508802679241,[],"[960, 540]",ColorTask,59.0,21.0,,,HRV,HRV_0143,2022-11-30 18:24:03
,wl-rdm,138,403186,0.0-8.21-0.21,1.0,138.0,,,,,,,[],,,,,,87.9,0.0,u,0.0,True,715.1000000238419,43.0,60.0,40.0,False,,223.15791797666833,[],"[960, 540]",ColorTask,60.0,22.0,,,HRV,HRV_0143,2022-11-30 18:24:03
,wl-rdm,139,405669,0.0-8.22-0.22,1.0,139.0,,,,,,,[],,,,,,53.2,0.0,u,0.0,True,1078.5,65.0,60.0,40.0,False,,322.9535889352284,[],"[960, 540]",ColorTask,61.0,23.0,,,HRV,HRV_0143,2022-11-30 18:24:03
,wl-rdm,140,408169,0.0-8.23-0.23,1.0,140.0,,,,,,,[],,,,,,56.4,1.0,i,1.0,True,1207.7000000476837,73.0,60.0,40.0,False,,228.3349935110172,[],"[960, 540]",ColorTask,62.0,24.0,,,HRV,HRV_0143,2022-11-30 18:24:03
,wl-rdm,141,411219,0.0-8.24-0.24,1.0,141.0,,,,,,,[],,,,,,50.0,1.0,u,0.0,False,1722.8999999761581,104.0,60.0,40.0,False,,241.74347803813416,[],"[960, 540]",ColorTask,61.0,25.0,,,HRV,HRV_0143,2022-11-30 18:24:03
,wl-rdm,142,413269,0.0-8.25-0.25,1.0,142.0,,,,,,,[],,,,,,62.5,1.0,i,1.0,True,777.7999999523163,47.0,60.0,40.0,False,,215.0890668507574,[],"[960, 540]",ColorTask,62.0,26.0,,,HRV,HRV_0143,2022-11-30 18:24:03
,wl-rdm,143,416019,0.0-8.26-0.26,1.0,143.0,,,,,,,[],,,,,,53.2,1.0,u,0.0,False,1446.3000000715256,87.0,60.0,40.0,False,,247.79170715225698,[],"[960, 540]",ColorTask,61.0,27.0,,,HRV,HRV_0143,2022-11-30 18:24:03
,wl-rdm,144,418569,0.0-8.27-0.27,1.0,144.0,,,,,,,[],,,,,,53.2,1.0,u,0.0,False,1224.6000000238419,74.0,60.0,40.0,False,,256.629900225905,[],"[960, 540]",ColorTask,60.0,28.0,,,HRV,HRV_0143,2022-11-30 18:24:03
,wl-rdm,145,420936,0.0-8.28-0.28,1.0,145.0,,,,,,,[],,,,,,50.0,0.0,i,1.0,False,925.8000000715256,56.0,60.0,40.0,False,,364.88053627479115,[],"[960, 540]",ColorTask,59.0,29.0,,,HRV,HRV_0143,2022-11-30 18:24:03
,wl-rdm,146,423086,0.0-8.29-0.29,1.0,146.0,,,,,,,[],,,,,,56.4,0.0,u,0.0,True,753.1000000238419,46.0,60.0,40.0,False,,314.6459046351315,[],"[960, 540]",ColorTask,60.0,30.0,,,HRV,HRV_0143,2022-11-30 18:24:03
,wl-rdm,147,425186,0.0-8.30-0.30,1.0,147.0,,,,,,,[],,,,,,56.4,0.0,u,0.0,True,640.6000000238419,39.0,60.0,40.0,False,,382.93499807069463,[],"[960, 540]",ColorTask,61.0,31.0,,,HRV,HRV_0143,2022-11-30 18:24:03
,wl-rdm,148,427702,0.0-8.31-0.31,1.0,148.0,,,,,,,[],,,,,,53.2,0.0,i,1.0,False,1126.7999999523163,68.0,60.0,40.0,False,,328.71568348496066,[],"[960, 540]",ColorTask,60.0,32.0,,,HRV,HRV_0143,2022-11-30 18:24:03
,wl-rdm,149,429819,0.0-8.32-0.32,1.0,149.0,,,,,,,[],,,,,,62.5,1.0,i,1.0,True,763.3000000715256,46.0,60.0,40.0,False,,297.3796232847762,[],"[960, 540]",ColorTask,61.0,33.0,,,HRV,HRV_0143,2022-11-30 18:24:03
,wl-rdm,150,432036,0.0-8.33-0.33,1.0,150.0,,,,,,,[],,,,,,50.0,0.0,u,0.0,True,896.5,54.0,60.0,40.0,False,,247.42543841421323,[],"[960, 540]",ColorTask,62.0,34.0,,,HRV,HRV_0143,2022-11-30 18:24:03
,wl-rdm,151,434186,0.0-8.34-0.34,1.0,151.0,,,,,,,[],,,,,,87.9,0.0,u,0.0,True,714.4000000953674,43.0,60.0,40.0,False,,382.5846726123962,[],"[960, 540]",ColorTask,63.0,35.0,,,HRV,HRV_0143,2022-11-30 18:24:03
,wl-rdm,152,436402,0.0-8.35-0.35,1.0,152.0,,,,,,,[],,,,,,50.0,0.0,u,0.0,True,839.2999999523163,51.0,60.0,40.0,False,,308.6932766373926,[],"[960, 540]",ColorTask,64.0,36.0,,,HRV,HRV_0143,2022-11-30 18:24:03
,wl-rdm,153,439186,0.0-8.36-0.36,1.0,153.0,,,,,,,[],,,,,,56.4,0.0,u,0.0,True,1397.7000000476837,84.0,60.0,40.0,False,,321.91836495953623,[],"[960, 540]",ColorTask,65.0,37.0,,,HRV,HRV_0143,2022-11-30 18:24:03
,wl-rdm,154,441719,0.0-8.37-0.37,1.0,154.0,,,,,,,[],,,,,,53.2,1.0,i,1.0,True,1168.5,71.0,60.0,40.0,False,,298.83190119650925,[],"[960, 540]",ColorTask,66.0,38.0,,,HRV,HRV_0143,2022-11-30 18:24:03
,wl-rdm,155,444502,0.0-8.38-0.38,1.0,155.0,,,,,,,[],,,,,,56.4,1.0,i,1.0,True,1318.5,80.0,60.0,40.0,False,,390.3157766023056,[],"[960, 540]",ColorTask,67.0,39.0,,,HRV,HRV_0143,2022-11-30 18:24:03
,wl-rdm,156,447236,0.0-8.39-0.39,1.0,156.0,,,,,,,[],,,,,,56.4,1.0,u,0.0,False,1429.1000000238419,86.0,60.0,40.0,False,,244.87240376141995,[],"[960, 540]",ColorTask,66.0,40.0,,,HRV,HRV_0143,2022-11-30 18:24:03
,wl-rdm,157,449769,0.0-8.40-0.40,1.0,157.0,,,,,,,[],,,,,,73.6,1.0,i,1.0,True,1058.0,64.0,60.0,40.0,False,,384.96938349061224,[],"[960, 540]",ColorTask,67.0,41.0,,,HRV,HRV_0143,2022-11-30 18:24:03
,wl-rdm,158,452102,0.0-8.41-0.41,1.0,158.0,,,,,,,[],,,,,,73.6,0.0,u,0.0,True,1027.5,62.0,60.0,40.0,False,,220.03153482516794,[],"[960, 540]",ColorTask,68.0,42.0,,,HRV,HRV_0143,2022-11-30 18:24:03
,wl-rdm,159,454786,0.0-8.42-0.42,1.0,159.0,,,,,,,[],,,,,,53.2,0.0,u,0.0,True,1264.4000000953674,76.0,60.0,40.0,False,,363.85083453529,[],"[960, 540]",ColorTask,69.0,43.0,,,HRV,HRV_0143,2022-11-30 18:24:03
,wl-rdm,160,456952,0.0-8.43-0.43,1.0,160.0,,,,,,,[],,,,,,73.6,1.0,i,1.0,True,684.1000000238419,42.0,60.0,40.0,False,,391.88804132491964,[],"[960, 540]",ColorTask,70.0,44.0,,,HRV,HRV_0143,2022-11-30 18:24:03
,wl-rdm,161,459469,0.0-8.44-0.44,1.0,161.0,,,,,,,[],,,,,,62.5,0.0,i,1.0,False,1194.5,72.0,60.0,40.0,False,,258.7597030013668,[],"[960, 540]",ColorTask,69.0,45.0,,,HRV,HRV_0143,2022-11-30 18:24:03
,wl-rdm,162,461569,0.0-8.45-0.45,1.0,162.0,,,,,,,[],,,,,,73.6,0.0,u,0.0,True,707.0,43.0,60.0,40.0,False,,319.5253160983653,[],"[960, 540]",ColorTask,70.0,46.0,,,HRV,HRV_0143,2022-11-30 18:24:03
,wl-rdm,163,464036,0.0-8.46-0.46,1.0,163.0,,,,,,,[],,,,,,50.0,1.0,i,1.0,True,1196.1000000238419,72.0,60.0,40.0,False,,210.33661601923467,[],"[960, 540]",ColorTask,71.0,47.0,,,HRV,HRV_0143,2022-11-30 18:24:03
,wl-rdm,164,467102,0.0-8.47-0.47,1.0,164.0,,,,,,,[],,,,,,53.2,1.0,u,0.0,False,1743.8999999761581,105.0,60.0,40.0,False,,234.53652108489828,[],"[960, 540]",ColorTask,70.0,48.0,,,HRV,HRV_0143,2022-11-30 18:24:03
,wl-rdm,165,469402,0.0-8.48-0.48,1.0,165.0,,,,,,,[],,,,,,87.9,1.0,i,1.0,True,923.2999999523163,56.0,60.0,40.0,False,,296.8767672083328,[],"[960, 540]",ColorTask,71.0,49.0,,,HRV,HRV_0143,2022-11-30 18:24:03
,wl-rdm,166,471469,0.0-8.49-0.49,1.0,166.0,,,,,,,[],,,,,,87.9,0.0,u,0.0,True,794.3999999761581,48.0,60.0,40.0,False,,206.7499461169046,[],"[960, 540]",ColorTask,72.0,50.0,,,HRV,HRV_0143,2022-11-30 18:24:03
,wl-rdm,167,473619,0.0-8.50-0.50,1.0,167.0,,,,,,,[],,,,,,87.9,0.0,u,0.0,True,813.7000000476837,49.0,60.0,40.0,False,,266.52166343590767,[],"[960, 540]",ColorTask,73.0,51.0,,,HRV,HRV_0143,2022-11-30 18:24:03
,wl-rdm,168,476669,0.0-8.51-0.51,1.0,168.0,,,,,,,[],,,,,,56.4,0.0,u,0.0,True,1720.8000000715256,104.0,60.0,40.0,False,,244.07771952197214,[],"[960, 540]",ColorTask,74.0,52.0,,,HRV,HRV_0143,2022-11-30 18:24:03
,wl-rdm,169,478952,0.0-8.52-0.52,1.0,169.0,,,,,,,[],,,,,,73.6,0.0,u,0.0,True,991.2000000476837,60.0,60.0,40.0,False,,222.86164191008496,[],"[960, 540]",ColorTask,75.0,53.0,,,HRV,HRV_0143,2022-11-30 18:24:03
,wl-rdm,170,480969,0.0-8.53-0.53,1.0,170.0,,,,,,,[],,,,,,73.6,1.0,i,1.0,True,731.7000000476837,44.0,60.0,40.0,False,,227.1403231722331,[],"[960, 540]",ColorTask,76.0,54.0,,,HRV,HRV_0143,2022-11-30 18:24:03
,wl-rdm,171,483136,0.0-8.54-0.54,1.0,171.0,,,,,,,[],,,,,,87.9,1.0,i,1.0,True,701.5,43.0,60.0,40.0,False,,380.4613206614227,[],"[960, 540]",ColorTask,77.0,55.0,,,HRV,HRV_0143,2022-11-30 18:24:03
,wl-rdm,172,485486,0.0-8.55-0.55,1.0,172.0,,,,,,,[],,,,,,87.9,1.0,i,1.0,True,986.5,60.0,60.0,40.0,False,,278.900301525794,[],"[960, 540]",ColorTask,78.0,56.0,,,HRV,HRV_0143,2022-11-30 18:24:03
,wl-rdm,173,487886,0.0-8.56-0.56,1.0,173.0,,,,,,,[],,,,,,62.5,1.0,u,0.0,False,1111.5,67.0,60.0,40.0,False,,213.29759828400546,[],"[960, 540]",ColorTask,77.0,57.0,,,HRV,HRV_0143,2022-11-30 18:24:03
,wl-rdm,174,490286,0.0-8.57-0.57,1.0,174.0,,,,,,,[],,,,,,50.0,0.0,i,1.0,False,1019.7000000476837,62.0,60.0,40.0,False,,298.7773651686896,[],"[960, 540]",ColorTask,76.0,58.0,,,HRV,HRV_0143,2022-11-30 18:24:03
,wl-rdm,175,492902,0.0-8.58-0.58,1.0,175.0,,,,,,,[],,,,,,50.0,1.0,u,0.0,False,1310.799999833107,79.0,60.0,40.0,False,,229.0117232733326,[],"[960, 540]",ColorTask,75.0,59.0,,,HRV,HRV_0143,2022-11-30 18:24:03
,wl-rdm,176,495619,0.0-8.59-0.59,1.0,176.0,,,,,,,[],,,,,,62.5,0.0,i,1.0,False,1297.1999999284744,78.0,60.0,40.0,False,,342.75893509963703,[],"[960, 540]",ColorTask,74.0,60.0,,,HRV,HRV_0143,2022-11-30 18:24:03
,wl-rdm,177,497869,0.0-8.60-0.60,1.0,177.0,,,,,,,[],,,,,,53.2,0.0,u,0.0,True,903.8999999761581,55.0,60.0,40.0,False,,259.6242190761842,[],"[960, 540]",ColorTask,75.0,61.0,,,HRV,HRV_0143,2022-11-30 18:24:03
,wl-rdm,178,500186,0.0-8.61-0.61,1.0,178.0,,,,,,,[],,,,,,62.5,1.0,i,1.0,True,1007.6000000238419,61.0,60.0,40.0,False,,231.2685154217974,[],"[960, 540]",ColorTask,76.0,62.0,,,HRV,HRV_0143,2022-11-30 18:24:03
,wl-rdm,179,502585,0.0-8.62-0.62,1.0,179.0,,,,,,,[],,,,,,62.5,1.0,i,1.0,True,1056.2999999523163,64.0,60.0,40.0,False,,275.34198605195536,[],"[960, 540]",ColorTask,77.0,63.0,,,HRV,HRV_0143,2022-11-30 18:24:03
,wl-rdm,180,504619,0.0-8.63-0.63,1.0,180.0,,,,,,,[],,,,,,73.6,1.0,i,1.0,True,697.1999999284744,42.0,60.0,40.0,False,,257.7752587887411,[],"[960, 540]",ColorTask,78.0,64.0,,,HRV,HRV_0143,2022-11-30 18:24:03
,wl-rdm,181,506902,0.0-8.64-0.64,1.0,181.0,,,,,,,[],,,,,,73.6,0.0,u,0.0,True,876.5999999046326,53.0,60.0,40.0,False,,348.62602952449583,[],"[960, 540]",ColorTask,79.0,65.0,,,HRV,HRV_0143,2022-11-30 18:24:03
,wl-rdm,182,509552,0.0-8.65-0.65,1.0,182.0,,,,,,,[],,,,,,53.2,0.0,u,0.0,True,1232.6000000238419,74.0,60.0,40.0,False,,354.5041134540449,[],"[960, 540]",ColorTask,80.0,66.0,,,HRV,HRV_0143,2022-11-30 18:24:03
,wl-rdm,183,511752,0.0-8.66-0.66,1.0,183.0,,,,,,,[],,,,,,87.9,1.0,i,1.0,True,758.3000000715256,46.0,60.0,40.0,False,,377.155262656152,[],"[960, 540]",ColorTask,81.0,67.0,,,HRV,HRV_0143,2022-11-30 18:24:03
,wl-rdm,184,514119,0.0-8.67-0.67,1.0,184.0,,,,,,,[],,,,,,53.2,1.0,i,1.0,True,1001.7999999523163,61.0,60.0,40.0,False,,282.9406160703782,[],"[960, 540]",ColorTask,82.0,68.0,,,HRV,HRV_0143,2022-11-30 18:24:03
,wl-rdm,185,516919,0.0-8.68-0.68,1.0,185.0,,,,,,,[],,,,,,50.0,1.0,i,1.0,True,1368.3000000715256,83.0,60.0,40.0,False,,346.9282408932795,[],"[960, 540]",ColorTask,83.0,69.0,,,HRV,HRV_0143,2022-11-30 18:24:03
,wl-rdm,186,519352,0.0-8.69-0.69,1.0,186.0,,,,,,,[],,,,,,50.0,0.0,u,0.0,True,1034.3000000715256,63.0,60.0,40.0,False,,307.6663315315968,[],"[960, 540]",ColorTask,84.0,70.0,,,HRV,HRV_0143,2022-11-30 18:24:03
,wl-rdm,187,522569,0.0-8.70-0.70,1.0,187.0,,,,,,,[],,,,,,56.4,0.0,i,1.0,False,1874.5,113.0,60.0,40.0,False,,274.58066749083144,[],"[960, 540]",ColorTask,83.0,71.0,,,HRV,HRV_0143,2022-11-30 18:24:03
,wl-rdm,188,525285,0.0-8.71-0.71,1.0,188.0,,,,,,,[],,,,,,56.4,1.0,u,0.0,False,1443.7000000476837,87.0,60.0,40.0,False,,211.4251867501425,[],"[960, 540]",ColorTask,82.0,72.0,,,HRV,HRV_0143,2022-11-30 18:24:03
,wl-rdm,189,527702,0.0-8.72-0.72,1.0,189.0,,,,,,,[],,,,,,53.2,0.0,u,0.0,True,1035.3000000715256,63.0,60.0,40.0,False,,312.80520596269344,[],"[960, 540]",ColorTask,83.0,73.0,,,HRV,HRV_0143,2022-11-30 18:24:03
,wl-rdm,190,530202,0.0-8.73-0.73,1.0,190.0,,,,,,,[],,,,,,62.5,0.0,u,0.0,True,1206.7999999523163,73.0,60.0,40.0,False,,212.51749185037184,[],"[960, 540]",ColorTask,84.0,74.0,,,HRV,HRV_0143,2022-11-30 18:24:03
,wl-rdm,191,532769,0.0-8.74-0.74,1.0,191.0,,,,,,,[],,,,,,56.4,0.0,u,0.0,True,1250.1999999284744,75.0,60.0,40.0,False,,241.26598951336368,[],"[960, 540]",ColorTask,85.0,75.0,,,HRV,HRV_0143,2022-11-30 18:24:03
,wl-rdm,192,534986,0.0-8.75-0.75,1.0,192.0,,,,,,,[],,,,,,73.6,1.0,i,1.0,True,857.5,52.0,60.0,40.0,False,,295.80742721529344,[],"[960, 540]",ColorTask,86.0,76.0,,,HRV,HRV_0143,2022-11-30 18:24:03
,wl-rdm,193,537919,0.0-8.76-0.76,1.0,193.0,,,,,,,[],,,,,,62.5,0.0,u,0.0,True,1551.6000000238419,94.0,60.0,40.0,False,,298.74248580632684,[],"[960, 540]",ColorTask,87.0,77.0,,,HRV,HRV_0143,2022-11-30 18:24:03
,wl-rdm,194,539969,0.0-8.77-0.77,1.0,194.0,,,,,,,[],,,,,,73.6,0.0,i,1.0,False,715.3000000715256,43.0,60.0,40.0,False,,269.867757351863,[],"[960, 540]",ColorTask,86.0,78.0,,,HRV,HRV_0143,2022-11-30 18:24:03
,wl-rdm,195,541986,0.0-8.78-0.78,1.0,195.0,,,,,,,[],,,,,,50.0,1.0,i,1.0,True,673.1999999284744,41.0,60.0,40.0,False,,281.5836432292508,[],"[960, 540]",ColorTask,87.0,79.0,,,HRV,HRV_0143,2022-11-30 18:24:03
,wl-rdm,196,544036,0.0-8.79-0.79,1.0,196.0,,,,,,,[],,,,,,87.9,1.0,i,1.0,True,656.1000000238419,40.0,60.0,40.0,False,,300.28493337241594,[],"[960, 540]",ColorTask,88.0,80.0,,,HRV,HRV_0143,2022-11-30 18:24:03
,wl-rdm,197,546169,0.0-8.80-0.80,1.0,197.0,,,,,,,[],,,,,,56.4,1.0,i,1.0,True,815.1000000238419,49.0,60.0,40.0,False,,261.79188496012785,[],"[960, 540]",ColorTask,89.0,81.0,,,HRV,HRV_0143,2022-11-30 18:24:03
,wl-rdm,198,548436,0.0-8.81-0.81,1.0,198.0,,,,,,,[],,,,,,53.2,0.0,i,1.0,False,971.0,59.0,60.0,40.0,False,,220.22860827219256,[],"[960, 540]",ColorTask,88.0,82.0,,,HRV,HRV_0143,2022-11-30 18:24:03
,wl-rdm,199,550469,0.0-8.82-0.82,1.0,199.0,,,,,,,[],,,,,,62.5,0.0,u,0.0,True,703.1000000238419,43.0,60.0,40.0,False,,255.2695949406072,[],"[960, 540]",ColorTask,89.0,83.0,,,HRV,HRV_0143,2022-11-30 18:24:03
,wl-rdm,200,552669,0.0-8.83-0.83,1.0,200.0,,,,,,,[],,,,,,87.9,1.0,i,1.0,True,828.0000001192093,50.0,60.0,40.0,False,,313.6223846121908,[],"[960, 540]",ColorTask,90.0,84.0,,,HRV,HRV_0143,2022-11-30 18:24:03
,wl-rdm,201,554952,0.0-8.84-0.84,1.0,201.0,,,,,,,[],,,,,,73.6,1.0,u,0.0,False,901.6999999284744,55.0,60.0,40.0,False,,293.0887275028131,[],"[960, 540]",ColorTask,89.0,85.0,,,HRV,HRV_0143,2022-11-30 18:24:03
,wl-rdm,202,556969,0.0-8.85-0.85,1.0,202.0,,,,,,,[],,,,,,73.6,1.0,i,1.0,True,691.1000000238419,42.0,60.0,40.0,False,,243.73046402157394,[],"[960, 540]",ColorTask,90.0,86.0,,,HRV,HRV_0143,2022-11-30 18:24:03
,wl-rdm,203,559669,0.0-8.86-0.86,1.0,203.0,,,,,,,[],,,,,,53.2,1.0,u,0.0,False,1403.0,85.0,60.0,40.0,False,,220.16507228890944,[],"[960, 540]",ColorTask,89.0,87.0,,,HRV,HRV_0143,2022-11-30 18:24:03
,wl-rdm,204,562103,0.0-8.87-0.87,1.0,204.0,,,,,,,[],,,,,,50.0,1.0,u,0.0,False,985.8000000715256,60.0,60.0,40.0,False,,366.24745011068757,[],"[960, 540]",ColorTask,88.0,88.0,,,HRV,HRV_0143,2022-11-30 18:24:03
,wl-rdm,205,564236,0.0-8.88-0.88,1.0,205.0,,,,,,,[],,,,,,73.6,1.0,i,1.0,True,796.8999999761581,48.0,60.0,40.0,False,,261.18356874640193,[],"[960, 540]",ColorTask,89.0,89.0,,,HRV,HRV_0143,2022-11-30 18:24:03
,wl-rdm,206,566519,0.0-8.89-0.89,1.0,206.0,,,,,,,[],,,,,,53.2,1.0,i,1.0,True,935.2000000476837,57.0,60.0,40.0,False,,275.3640396423501,[],"[960, 540]",ColorTask,90.0,90.0,,,HRV,HRV_0143,2022-11-30 18:24:03
,wl-rdm,207,569302,0.0-8.90-0.90,1.0,207.0,,,,,,,[],,,,,,56.4,1.0,u,0.0,False,1377.1000000238419,83.0,60.0,40.0,False,,318.53884742149296,[],"[960, 540]",ColorTask,89.0,91.0,,,HRV,HRV_0143,2022-11-30 18:24:03
,wl-rdm,208,571502,0.0-8.91-0.91,1.0,208.0,,,,,,,[],,,,,,87.9,0.0,u,0.0,True,843.7000000476837,51.0,60.0,40.0,False,,270.1686836936426,[],"[960, 540]",ColorTask,90.0,92.0,,,HRV,HRV_0143,2022-11-30 18:24:03
,wl-rdm,209,573702,0.0-8.92-0.92,1.0,209.0,,,,,,,[],,,,,,73.6,0.0,u,0.0,True,802.5,49.0,60.0,40.0,False,,310.33467916788385,[],"[960, 540]",ColorTask,91.0,93.0,,,HRV,HRV_0143,2022-11-30 18:24:03
,wl-rdm,210,575786,0.0-8.93-0.93,1.0,210.0,,,,,,,[],,,,,,53.2,1.0,i,1.0,True,773.1000000238419,47.0,60.0,40.0,False,,238.41522336747954,[],"[960, 540]",ColorTask,92.0,94.0,,,HRV,HRV_0143,2022-11-30 18:24:03
,wl-rdm,211,577869,0.0-8.94-0.94,1.0,211.0,,,,,,,[],,,,,,87.9,0.0,u,0.0,True,662.1000000238419,40.0,60.0,40.0,False,,341.1134194240366,[],"[960, 540]",ColorTask,93.0,95.0,,,HRV,HRV_0143,2022-11-30 18:24:03
,wl-rdm,212,579969,0.0-8.95-0.95,1.0,212.0,,,,,,,[],,,,,,56.4,0.0,u,0.0,True,815.2000000476837,49.0,60.0,40.0,False,,224.96522256070588,[],"[960, 540]",ColorTask,94.0,96.0,,,HRV,HRV_0143,2022-11-30 18:24:03
,wl-rdm,213,582353,0.0-8.96-0.96,1.0,213.0,,,,,,,[],,,,,,62.5,0.0,i,1.0,False,1050.0,63.0,60.0,40.0,False,,263.45960300368375,[],"[960, 540]",ColorTask,93.0,97.0,,,HRV,HRV_0143,2022-11-30 18:24:03
,wl-rdm,214,584553,0.0-8.97-0.97,1.0,214.0,,,,,,,[],,,,,,87.9,1.0,i,1.0,True,799.2999999523163,48.0,60.0,40.0,False,,337.7712774956248,[],"[960, 540]",ColorTask,94.0,98.0,,,HRV,HRV_0143,2022-11-30 18:24:03
,wl-rdm,215,586586,0.0-8.98-0.98,1.0,215.0,,,,,,,[],,,,,,73.6,0.0,u,0.0,True,748.6000000238419,45.0,60.0,40.0,False,,204.9761376587718,[],"[960, 540]",ColorTask,95.0,99.0,,,HRV,HRV_0143,2022-11-30 18:24:03
,wl-rdm,216,588853,0.0-8.99-0.99,1.0,216.0,,,,,,,[],,,,,,62.5,1.0,i,1.0,True,804.6000000238419,49.0,60.0,40.0,False,,393.85648929205297,[],"[960, 540]",ColorTask,96.0,100.0,,,HRV,HRV_0143,2022-11-30 18:24:03
,wl-rdm,217,591569,0.0-8.100-0.100,1.0,217.0,,,,,,,[],,,,,,62.5,1.0,i,1.0,True,1314.8999999761581,79.0,60.0,40.0,False,,346.2183638977953,[],"[960, 540]",ColorTask,97.0,101.0,,,HRV,HRV_0143,2022-11-30 18:24:03
,wl-rdm,218,594219,0.0-8.101-0.101,1.0,218.0,,,,,,,[],,,,,,53.2,1.0,u,0.0,False,1188.6000000238419,72.0,60.0,40.0,False,,397.50199405570424,[],"[960, 540]",ColorTask,96.0,102.0,,,HRV,HRV_0143,2022-11-30 18:24:03
,wl-rdm,219,596469,0.0-8.102-0.102,1.0,219.0,,,,,,,[],,,,,,53.2,0.0,i,1.0,False,844.3999999761581,51.0,60.0,40.0,False,,335.23856296161716,[],"[960, 540]",ColorTask,95.0,103.0,,,HRV,HRV_0143,2022-11-30 18:24:03
,wl-rdm,220,598602,0.0-8.103-0.103,1.0,220.0,,,,,,,[],,,,,,53.2,0.0,i,1.0,False,747.6000000238419,45.0,60.0,40.0,False,,305.789852517341,[],"[960, 540]",ColorTask,94.0,104.0,,,HRV,HRV_0143,2022-11-30 18:24:03
,wl-rdm,221,600819,0.0-8.104-0.104,1.0,221.0,,,,,,,[],,,,,,62.5,0.0,u,0.0,True,922.5,56.0,60.0,40.0,False,,221.43398714973304,[],"[960, 540]",ColorTask,95.0,105.0,,,HRV,HRV_0143,2022-11-30 18:24:03
,wl-rdm,222,603336,0.0-8.105-0.105,1.0,222.0,,,,,,,[],,,,,,50.0,0.0,u,0.0,True,1084.0,66.0,60.0,40.0,False,,355.44428327484275,[],"[960, 540]",ColorTask,96.0,106.0,,,HRV,HRV_0143,2022-11-30 18:24:03
,wl-rdm,223,605619,0.0-8.106-0.106,1.0,223.0,,,,,,,[],,,,,,73.6,1.0,i,1.0,True,947.1000000238419,57.0,60.0,40.0,False,,251.22831663167378,[],"[960, 540]",ColorTask,97.0,107.0,,,HRV,HRV_0143,2022-11-30 18:24:03
,wl-rdm,224,607952,0.0-8.107-0.107,1.0,224.0,,,,,,,[],,,,,,50.0,1.0,u,0.0,False,1049.0,63.0,60.0,40.0,False,,221.6199457690607,[],"[960, 540]",ColorTask,96.0,108.0,,,HRV,HRV_0143,2022-11-30 18:24:03
,wl-html-button-response,225,611578,0.0-9.0-0.0,,,,,,,,,,3623.2999999523163,,0,,,,,,,,,,,,,,,,,,,,<h3>End of this session. Thank you!</h3><br>,['Close window'],HRV,HRV_0143,2022-11-30 18:24:03
