trialN,stimuli,trialStartTime,trialStartTime_UNIX,stimulus1,stimulus2,stimulus1Bid,stimulus2Bid,delta,selected,rt,rt_UNIX,rt_perfnow,receivedResponse,rsp,trialEndTime,trialDuration,trialEndTime_UNIX,trialDuration_UNIX,exp,subjectId,date
0,"[{'imgObject': {}, 'id': 'raspberries', 'src': '/static/foodstim60/raspberries.jpg', 'key': 'u', 'origWidth': 411, 'origHeight': 411, 'width': 411, 'height': 411, 'widthPercent': 0.45, 'rescaleHeight': False, 'trialN': 0, 'loaded': True, 'loadedTime': 2520.5, 'positionName': 'LEFT', 'positionCoords': [510.6, 334.5], 'bid': 3.42}, {'imgObject': {}, 'id': 'froot loops w milk', 'src': '/static/foodstim60/froot loops w milk.jpg', 'key': 'i', 'origWidth': 410, 'origHeight': 410, 'width': 410, 'height': 410, 'widthPercent': 0.45, 'rescaleHeight': False, 'trialN': 0, 'loaded': True, 'loadedTime': 2532.100000023842, 'positionName': 'RIGHT', 'positionCoords': [998.4, 335], 'bid': 8.27}]",2807.5,1669831731289,raspberries,froot loops w milk,3.42,8.27,4.85,froot loops w milk,1080.2000000476837,1081,1081.3999999761581,True,i,4399.300000071526,1591.8000000715256,1669831732880,1591,HRV,HRV_0143,2022-11-30 18:13:41
1,"[{'imgObject': {}, 'id': 'turkeysandwich', 'src': '/static/foodstim60/turkeysandwich.jpg', 'key': 'u', 'origWidth': 409, 'origHeight': 409, 'width': 409, 'height': 409, 'widthPercent': 0.45, 'rescaleHeight': False, 'trialN': 1, 'loaded': True, 'loadedTime': 2552.399999976158, 'positionName': 'LEFT', 'positionCoords': [512.6, 335.5], 'bid': 9.98}, {'imgObject': {}, 'id': 'Tribe humus pita', 'src': '/static/foodstim60/Tribe humus pita.jpg', 'key': 'i', 'origWidth': 411, 'origHeight': 411, 'width': 411, 'height': 411, 'widthPercent': 0.45, 'rescaleHeight': False, 'trialN': 1, 'loaded': True, 'loadedTime': 2554.899999976158, 'positionName': 'RIGHT', 'positionCoords': [998.4, 334.5], 'bid': 9.27}]",4399.5,1669831732881,turkeysandwich,Tribe humus pita,9.98,9.27,-0.7100000000000009,turkeysandwich,784.3000000715256,784,784.7000000476837,True,u,5689.0,1289.5,1669831734170,1289,HRV,HRV_0143,2022-11-30 18:13:41
2,"[{'imgObject': {}, 'id': 'mac & cheese', 'src': '/static/foodstim60/mac & cheese.jpg', 'key': 'u', 'origWidth': 410, 'origHeight': 410, 'width': 410, 'height': 410, 'widthPercent': 0.45, 'rescaleHeight': False, 'trialN': 2, 'loaded': True, 'loadedTime': 2556.399999976158, 'positionName': 'LEFT', 'positionCoords': [511.6, 335], 'bid': 8.44}, {'imgObject': {}, 'id': 'blueberries', 'src': '/static/foodstim60/blueberries.jpg', 'key': 'i', 'origWidth': 411, 'origHeight': 411, 'width': 411, 'height': 411, 'widthPercent': 0.45, 'rescaleHeight': False, 'trialN': 2, 'loaded': True, 'loadedTime': 2557.899999976158, 'positionName': 'RIGHT', 'positionCoords': [998.4, 334.5], 'bid': 7.68}]",5689.200000047684,1669831734170,mac & cheese,blueberries,8.44,7.68,-0.7599999999999998,mac & cheese,78.29999995231628,79,78.69999992847443,True,u,6281.700000047684,592.5,1669831734763,593,HRV,HRV_0143,2022-11-30 18:13:41
3,"[{'imgObject': {}, 'id': 'cherries', 'src': '/static/foodstim60/cherries.jpg', 'key': 'u', 'origWidth': 410, 'origHeight': 411, 'width': 410, 'height': 411, 'widthPercent': 0.45, 'rescaleHeight': False, 'trialN': 3, 'loaded': True, 'loadedTime': 2559.2000000476837, 'positionName': 'LEFT', 'positionCoords': [511.6, 334.5], 'bid': 7.19}, {'imgObject': {}, 'id': 'grilled chicken strips', 'src': '/static/foodstim60/grilled chicken strips.jpg', 'key': 'i', 'origWidth': 410, 'origHeight': 411, 'width': 410, 'height': 411, 'widthPercent': 0.45, 'rescaleHeight': False, 'trialN': 3, 'loaded': True, 'loadedTime': 2561.399999976158, 'positionName': 'RIGHT', 'positionCoords': [998.4, 334.5], 'bid': 9.96}]",6281.899999976158,1669831734763,cherries,grilled chicken strips,7.19,9.96,2.7700000000000005,grilled chicken strips,709.6000000238419,710,709.8000000715256,True,i,7496.200000047684,1214.3000000715256,1669831735977,1214,HRV,HRV_0143,2022-11-30 18:13:41
4,"[{'imgObject': {}, 'id': 'raisin bran w milk', 'src': '/static/foodstim60/raisin bran w milk.jpg', 'key': 'u', 'origWidth': 411, 'origHeight': 411, 'width': 411, 'height': 411, 'widthPercent': 0.45, 'rescaleHeight': False, 'trialN': 4, 'loaded': True, 'loadedTime': 2571.7000000476837, 'positionName': 'LEFT', 'positionCoords': [510.6, 334.5], 'bid': 9.02}, {'imgObject': {}, 'id': 'chickenfingers', 'src': '/static/foodstim60/chickenfingers.jpg', 'key': 'i', 'origWidth': 410, 'origHeight': 410, 'width': 410, 'height': 410, 'widthPercent': 0.45, 'rescaleHeight': False, 'trialN': 4, 'loaded': True, 'loadedTime': 2590.600000023842, 'positionName': 'RIGHT', 'positionCoords': [998.4, 335], 'bid': 10}]",7496.200000047684,1669831735977,raisin bran w milk,chickenfingers,9.02,10.0,0.9800000000000004,chickenfingers,831.3999999761581,832,831.6999999284744,True,i,8837.5,1341.2999999523163,1669831737319,1342,HRV,HRV_0143,2022-11-30 18:13:41
5,"[{'imgObject': {}, 'id': 'hashbrowns', 'src': '/static/foodstim60/hashbrowns.jpg', 'key': 'u', 'origWidth': 411, 'origHeight': 410, 'width': 411, 'height': 410, 'widthPercent': 0.45, 'rescaleHeight': False, 'trialN': 5, 'loaded': True, 'loadedTime': 2604.2000000476837, 'positionName': 'LEFT', 'positionCoords': [510.6, 335], 'bid': 7.81}, {'imgObject': {}, 'id': 'banana', 'src': '/static/foodstim60/banana.jpg', 'key': 'i', 'origWidth': 410, 'origHeight': 410, 'width': 410, 'height': 410, 'widthPercent': 0.45, 'rescaleHeight': False, 'trialN': 5, 'loaded': True, 'loadedTime': 2609.399999976158, 'positionName': 'RIGHT', 'positionCoords': [998.4, 335], 'bid': 7.82}]",8837.800000071526,1669831737319,hashbrowns,banana,7.81,7.82,0.010000000000000675,banana,769.7999999523163,770,770.2999999523163,True,i,10113.100000023842,1275.2999999523163,1669831738594,1275,HRV,HRV_0143,2022-11-30 18:13:41
6,"[{'imgObject': {}, 'id': 'baked potato', 'src': '/static/foodstim60/baked potato.jpg', 'key': 'u', 'origWidth': 409, 'origHeight': 410, 'width': 409, 'height': 410, 'widthPercent': 0.45, 'rescaleHeight': False, 'trialN': 6, 'loaded': True, 'loadedTime': 2610.899999976158, 'positionName': 'LEFT', 'positionCoords': [512.6, 335], 'bid': 6.4}, {'imgObject': {}, 'id': 'cantaloupe', 'src': '/static/foodstim60/cantaloupe.jpg', 'key': 'i', 'origWidth': 409, 'origHeight': 409, 'width': 409, 'height': 409, 'widthPercent': 0.45, 'rescaleHeight': False, 'trialN': 6, 'loaded': True, 'loadedTime': 2612.3000000715256, 'positionName': 'RIGHT', 'positionCoords': [998.4, 335.5], 'bid': 4.98}]",10113.300000071526,1669831738594,baked potato,cantaloupe,6.4,4.98,-1.42,baked potato,1022.5,1023,1022.8999999761581,True,u,11640.899999976158,1527.5999999046326,1669831740122,1528,HRV,HRV_0143,2022-11-30 18:13:41
7,"[{'imgObject': {}, 'id': 'lox', 'src': '/static/foodstim60/lox.jpg', 'key': 'u', 'origWidth': 410, 'origHeight': 411, 'width': 410, 'height': 411, 'widthPercent': 0.45, 'rescaleHeight': False, 'trialN': 7, 'loaded': True, 'loadedTime': 2614.5, 'positionName': 'LEFT', 'positionCoords': [511.6, 334.5], 'bid': 5.92}, {'imgObject': {}, 'id': 'cantaloupe', 'src': '/static/foodstim60/cantaloupe.jpg', 'key': 'i', 'origWidth': 409, 'origHeight': 409, 'width': 409, 'height': 409, 'widthPercent': 0.45, 'rescaleHeight': False, 'trialN': 7, 'loaded': True, 'loadedTime': 2613, 'positionName': 'RIGHT', 'positionCoords': [998.4, 335.5], 'bid': 4.98}]",11641.100000023842,1669831740122,lox,cantaloupe,5.92,4.98,-0.9399999999999995,lox,878.5,879,878.7000000476837,True,u,13029.700000047684,1388.6000000238419,1669831741511,1389,HRV,HRV_0143,2022-11-30 18:13:41
8,"[{'imgObject': {}, 'id': 'salad w chicken', 'src': '/static/foodstim60/salad w chicken.jpg', 'key': 'u', 'origWidth': 411, 'origHeight': 411, 'width': 411, 'height': 411, 'widthPercent': 0.45, 'rescaleHeight': False, 'trialN': 8, 'loaded': True, 'loadedTime': 2615.399999976158, 'positionName': 'LEFT', 'positionCoords': [510.6, 334.5], 'bid': 9.19}, {'imgObject': {}, 'id': 'chicken nuggets2', 'src': '/static/foodstim60/chicken nuggets2.jpg', 'key': 'i', 'origWidth': 410, 'origHeight': 409, 'width': 410, 'height': 409, 'widthPercent': 0.45, 'rescaleHeight': False, 'trialN': 8, 'loaded': True, 'loadedTime': 2618.3000000715256, 'positionName': 'RIGHT', 'positionCoords': [998.4, 335.5], 'bid': 9.97}]",13029.800000071526,1669831741511,salad w chicken,chicken nuggets2,9.19,9.97,0.7800000000000011,chicken nuggets2,801.6999999284744,802,802.0,True,i,14343.100000023842,1313.2999999523163,1669831742824,1313,HRV,HRV_0143,2022-11-30 18:13:41
9,"[{'imgObject': {}, 'id': 'fried eggs', 'src': '/static/foodstim60/fried eggs.jpg', 'key': 'u', 'origWidth': 410, 'origHeight': 410, 'width': 410, 'height': 410, 'widthPercent': 0.45, 'rescaleHeight': False, 'trialN': 9, 'loaded': True, 'loadedTime': 2618.899999976158, 'positionName': 'LEFT', 'positionCoords': [511.6, 335], 'bid': 7.7}, {'imgObject': {}, 'id': 'banana', 'src': '/static/foodstim60/banana.jpg', 'key': 'i', 'origWidth': 410, 'origHeight': 410, 'width': 410, 'height': 410, 'widthPercent': 0.45, 'rescaleHeight': False, 'trialN': 9, 'loaded': True, 'loadedTime': 2609.899999976158, 'positionName': 'RIGHT', 'positionCoords': [998.4, 335], 'bid': 7.82}]",14343.300000071526,1669831742824,fried eggs,banana,7.7,7.82,0.1200000000000001,fried eggs,880.3999999761581,881,881.0,True,u,15732.600000023842,1389.2999999523163,1669831744214,1390,HRV,HRV_0143,2022-11-30 18:13:41
10,"[{'imgObject': {}, 'id': 'eggsalad', 'src': '/static/foodstim60/eggsalad.jpg', 'key': 'u', 'origWidth': 410, 'origHeight': 409, 'width': 410, 'height': 409, 'widthPercent': 0.45, 'rescaleHeight': False, 'trialN': 10, 'loaded': True, 'loadedTime': 2620.2000000476837, 'positionName': 'LEFT', 'positionCoords': [511.6, 335.5], 'bid': 5.69}, {'imgObject': {}, 'id': 'apple slices', 'src': '/static/foodstim60/apple slices.jpg', 'key': 'i', 'origWidth': 409, 'origHeight': 410, 'width': 409, 'height': 410, 'widthPercent': 0.45, 'rescaleHeight': False, 'trialN': 10, 'loaded': True, 'loadedTime': 2621.5, 'positionName': 'RIGHT', 'positionCoords': [998.4, 335], 'bid': 5.6000000000000005}]",15732.899999976158,1669831744214,eggsalad,apple slices,5.69,5.6000000000000005,-0.08999999999999986,eggsalad,1202.6000000238419,1203,1203.1000000238419,True,u,17452.899999976158,1720.0,1669831745934,1720,HRV,HRV_0143,2022-11-30 18:13:41
11,"[{'imgObject': {}, 'id': 'raisin bran w milk', 'src': '/static/foodstim60/raisin bran w milk.jpg', 'key': 'u', 'origWidth': 411, 'origHeight': 411, 'width': 411, 'height': 411, 'widthPercent': 0.45, 'rescaleHeight': False, 'trialN': 11, 'loaded': True, 'loadedTime': 2580.399999976158, 'positionName': 'LEFT', 'positionCoords': [510.6, 334.5], 'bid': 9.02}, {'imgObject': {}, 'id': 'shreddedwheatwithmilk', 'src': '/static/foodstim60/shreddedwheatwithmilk.jpg', 'key': 'i', 'origWidth': 410, 'origHeight': 410, 'width': 410, 'height': 410, 'widthPercent': 0.45, 'rescaleHeight': False, 'trialN': 11, 'loaded': True, 'loadedTime': 2622.5, 'positionName': 'RIGHT', 'positionCoords': [998.4, 335], 'bid': 8.540000000000001}]",17453.0,1669831745934,raisin bran w milk,shreddedwheatwithmilk,9.02,8.540000000000001,-0.47999999999999865,shreddedwheatwithmilk,1004.5,1005,1004.8000000715256,True,i,18970.300000071526,1517.3000000715256,1669831747451,1517,HRV,HRV_0143,2022-11-30 18:13:41
12,"[{'imgObject': {}, 'id': 'cheerios', 'src': '/static/foodstim60/cheerios.jpg', 'key': 'u', 'origWidth': 409, 'origHeight': 410, 'width': 409, 'height': 410, 'widthPercent': 0.45, 'rescaleHeight': False, 'trialN': 12, 'loaded': True, 'loadedTime': 2624.5, 'positionName': 'LEFT', 'positionCoords': [512.6, 335], 'bid': 9.07}, {'imgObject': {}, 'id': 'Grapes', 'src': '/static/foodstim60/Grapes.jpg', 'key': 'i', 'origWidth': 411, 'origHeight': 411, 'width': 411, 'height': 411, 'widthPercent': 0.45, 'rescaleHeight': False, 'trialN': 12, 'loaded': True, 'loadedTime': 2625.399999976158, 'positionName': 'RIGHT', 'positionCoords': [998.4, 334.5], 'bid': 8.58}]",18970.5,1669831747452,cheerios,Grapes,9.07,8.58,-0.4900000000000002,Grapes,1197.0,1197,1197.3000000715256,True,i,20683.800000071526,1713.3000000715256,1669831749165,1713,HRV,HRV_0143,2022-11-30 18:13:41
13,"[{'imgObject': {}, 'id': 'omelette', 'src': '/static/foodstim60/omelette.jpg', 'key': 'u', 'origWidth': 410, 'origHeight': 409, 'width': 410, 'height': 409, 'widthPercent': 0.45, 'rescaleHeight': False, 'trialN': 13, 'loaded': True, 'loadedTime': 2626.3000000715256, 'positionName': 'LEFT', 'positionCoords': [511.6, 335.5], 'bid': 9.11}, {'imgObject': {}, 'id': 'bagel and cc', 'src': '/static/foodstim60/bagel and cc.jpg', 'key': 'i', 'origWidth': 410, 'origHeight': 410, 'width': 410, 'height': 410, 'widthPercent': 0.45, 'rescaleHeight': False, 'trialN': 13, 'loaded': True, 'loadedTime': 2627.2000000476837, 'positionName': 'RIGHT', 'positionCoords': [998.4, 335], 'bid': 8.68}]",20683.899999976158,1669831749165,omelette,bagel and cc,9.11,8.68,-0.4299999999999997,omelette,1260.1000000238419,1260,1260.4000000953674,True,u,22454.5,1770.6000000238419,1669831750936,1771,HRV,HRV_0143,2022-11-30 18:13:41
14,"[{'imgObject': {}, 'id': 'cocktailshrimp', 'src': '/static/foodstim60/cocktailshrimp.jpg', 'key': 'u', 'origWidth': 410, 'origHeight': 410, 'width': 410, 'height': 410, 'widthPercent': 0.45, 'rescaleHeight': False, 'trialN': 14, 'loaded': True, 'loadedTime': 2628.100000023842, 'positionName': 'LEFT', 'positionCoords': [511.6, 335], 'bid': 6.59}, {'imgObject': {}, 'id': 'sweetpotato', 'src': '/static/foodstim60/sweetpotato.jpg', 'key': 'i', 'origWidth': 410, 'origHeight': 410, 'width': 410, 'height': 410, 'widthPercent': 0.45, 'rescaleHeight': False, 'trialN': 14, 'loaded': True, 'loadedTime': 2629.100000023842, 'positionName': 'RIGHT', 'positionCoords': [998.4, 335], 'bid': 6.3500000000000005}]",22454.800000071526,1669831750936,cocktailshrimp,sweetpotato,6.59,6.3500000000000005,-0.23999999999999932,cocktailshrimp,1112.7999999523163,1113,1113.0999999046326,True,u,24085.899999976158,1631.0999999046326,1669831752567,1631,HRV,HRV_0143,2022-11-30 18:13:41
15,"[{'imgObject': {}, 'id': 'seaweed', 'src': '/static/foodstim60/seaweed.jpg', 'key': 'u', 'origWidth': 410, 'origHeight': 410, 'width': 410, 'height': 410, 'widthPercent': 0.45, 'rescaleHeight': False, 'trialN': 15, 'loaded': True, 'loadedTime': 2629.600000023842, 'positionName': 'LEFT', 'positionCoords': [511.6, 335], 'bid': 3.02}, {'imgObject': {}, 'id': 'corn cob', 'src': '/static/foodstim60/corn cob.jpg', 'key': 'i', 'origWidth': 411, 'origHeight': 411, 'width': 411, 'height': 411, 'widthPercent': 0.45, 'rescaleHeight': False, 'trialN': 15, 'loaded': True, 'loadedTime': 2630.7000000476837, 'positionName': 'RIGHT', 'positionCoords': [998.4, 334.5], 'bid': 2.47}]",24086.0,1669831752567,seaweed,corn cob,3.02,2.47,-0.5499999999999998,corn cob,809.6000000238419,810,809.8999999761581,True,i,25406.399999976158,1320.3999999761581,1669831753888,1321,HRV,HRV_0143,2022-11-30 18:13:41
16,"[{'imgObject': {}, 'id': 'lox', 'src': '/static/foodstim60/lox.jpg', 'key': 'u', 'origWidth': 410, 'origHeight': 411, 'width': 410, 'height': 411, 'widthPercent': 0.45, 'rescaleHeight': False, 'trialN': 16, 'loaded': True, 'loadedTime': 2614.2000000476837, 'positionName': 'LEFT', 'positionCoords': [511.6, 334.5], 'bid': 5.92}, {'imgObject': {}, 'id': 'ice cream sundae 002', 'src': '/static/foodstim60/ice cream sundae 002.jpg', 'key': 'i', 'origWidth': 409, 'origHeight': 409, 'width': 409, 'height': 409, 'widthPercent': 0.45, 'rescaleHeight': False, 'trialN': 16, 'loaded': True, 'loadedTime': 2632.899999976158, 'positionName': 'RIGHT', 'positionCoords': [998.4, 335.5], 'bid': 6.13}]",25406.600000023842,1669831753888,lox,ice cream sundae 002,5.92,6.13,0.20999999999999996,lox,753.0,753,753.2999999523163,True,u,26667.399999976158,1260.7999999523163,1669831755148,1260,HRV,HRV_0143,2022-11-30 18:13:41
17,"[{'imgObject': {}, 'id': 'sweetpotato', 'src': '/static/foodstim60/sweetpotato.jpg', 'key': 'u', 'origWidth': 410, 'origHeight': 410, 'width': 410, 'height': 410, 'widthPercent': 0.45, 'rescaleHeight': False, 'trialN': 17, 'loaded': True, 'loadedTime': 2629.100000023842, 'positionName': 'LEFT', 'positionCoords': [511.6, 335], 'bid': 6.3500000000000005}, {'imgObject': {}, 'id': 'luckycharms', 'src': '/static/foodstim60/luckycharms.jpg', 'key': 'i', 'origWidth': 410, 'origHeight': 409, 'width': 410, 'height': 409, 'widthPercent': 0.45, 'rescaleHeight': False, 'trialN': 17, 'loaded': True, 'loadedTime': 2636.5, 'positionName': 'RIGHT', 'positionCoords': [998.4, 335.5], 'bid': 9.69}]",26667.399999976158,1669831755149,sweetpotato,luckycharms,6.3500000000000005,9.69,3.339999999999999,luckycharms,844.2000000476837,844,844.6000000238419,True,i,28019.0,1351.6000000238419,1669831756500,1351,HRV,HRV_0143,2022-11-30 18:13:41
18,"[{'imgObject': {}, 'id': 'froot loops w milk', 'src': '/static/foodstim60/froot loops w milk.jpg', 'key': 'u', 'origWidth': 410, 'origHeight': 410, 'width': 410, 'height': 410, 'widthPercent': 0.45, 'rescaleHeight': False, 'trialN': 18, 'loaded': True, 'loadedTime': 2532.3000000715256, 'positionName': 'LEFT', 'positionCoords': [511.6, 335], 'bid': 8.27}, {'imgObject': {}, 'id': 'cocktailshrimp', 'src': '/static/foodstim60/cocktailshrimp.jpg', 'key': 'i', 'origWidth': 410, 'origHeight': 410, 'width': 410, 'height': 410, 'widthPercent': 0.45, 'rescaleHeight': False, 'trialN': 18, 'loaded': True, 'loadedTime': 2627.3000000715256, 'positionName': 'RIGHT', 'positionCoords': [998.4, 335], 'bid': 6.59}]",28019.200000047684,1669831756500,froot loops w milk,cocktailshrimp,8.27,6.59,-1.6799999999999997,cocktailshrimp,965.1999999284744,966,965.5,True,i,29500.300000071526,1481.1000000238419,1669831757981,1481,HRV,HRV_0143,2022-11-30 18:13:41
19,"[{'imgObject': {}, 'id': 'apple slices', 'src': '/static/foodstim60/apple slices.jpg', 'key': 'u', 'origWidth': 409, 'origHeight': 410, 'width': 409, 'height': 410, 'widthPercent': 0.45, 'rescaleHeight': False, 'trialN': 19, 'loaded': True, 'loadedTime': 2621.600000023842, 'positionName': 'LEFT', 'positionCoords': [512.6, 335], 'bid': 5.6000000000000005}, {'imgObject': {}, 'id': 'tacos', 'src': '/static/foodstim60/tacos.jpg', 'key': 'i', 'origWidth': 411, 'origHeight': 411, 'width': 411, 'height': 411, 'widthPercent': 0.45, 'rescaleHeight': False, 'trialN': 19, 'loaded': True, 'loadedTime': 2650.2000000476837, 'positionName': 'RIGHT', 'positionCoords': [998.4, 334.5], 'bid': 7.36}]",29500.399999976158,1669831757982,apple slices,tacos,5.6000000000000005,7.36,1.7599999999999998,tacos,1027.2000000476837,1027,1027.5,True,i,31034.100000023842,1533.7000000476837,1669831759515,1533,HRV,HRV_0143,2022-11-30 18:13:41
20,"[{'imgObject': {}, 'id': 'fruitsalad', 'src': '/static/foodstim60/fruitsalad.jpg', 'key': 'u', 'origWidth': 410, 'origHeight': 410, 'width': 410, 'height': 410, 'widthPercent': 0.45, 'rescaleHeight': False, 'trialN': 20, 'loaded': True, 'loadedTime': 2668.899999976158, 'positionName': 'LEFT', 'positionCoords': [511.6, 335], 'bid': 5.08}, {'imgObject': {}, 'id': 'kiwi', 'src': '/static/foodstim60/kiwi.jpg', 'key': 'i', 'origWidth': 410, 'origHeight': 410, 'width': 410, 'height': 410, 'widthPercent': 0.45, 'rescaleHeight': False, 'trialN': 20, 'loaded': True, 'loadedTime': 2683.899999976158, 'positionName': 'RIGHT', 'positionCoords': [998.4, 335], 'bid': 3.09}]",31034.200000047684,1669831759515,fruitsalad,kiwi,5.08,3.09,-1.9900000000000002,fruitsalad,1166.6000000238419,1167,1166.8999999761581,True,u,32703.700000047684,1669.5,1669831761185,1670,HRV,HRV_0143,2022-11-30 18:13:41
21,"[{'imgObject': {}, 'id': 'bagel and cc', 'src': '/static/foodstim60/bagel and cc.jpg', 'key': 'u', 'origWidth': 410, 'origHeight': 410, 'width': 410, 'height': 410, 'widthPercent': 0.45, 'rescaleHeight': False, 'trialN': 21, 'loaded': True, 'loadedTime': 2627, 'positionName': 'LEFT', 'positionCoords': [511.6, 335], 'bid': 8.68}, {'imgObject': {}, 'id': 'grilled chicken strips', 'src': '/static/foodstim60/grilled chicken strips.jpg', 'key': 'i', 'origWidth': 410, 'origHeight': 411, 'width': 410, 'height': 411, 'widthPercent': 0.45, 'rescaleHeight': False, 'trialN': 21, 'loaded': True, 'loadedTime': 2561.7000000476837, 'positionName': 'RIGHT', 'positionCoords': [998.4, 334.5], 'bid': 9.96}]",32703.899999976158,1669831761185,bagel and cc,grilled chicken strips,8.68,9.96,1.2800000000000011,bagel and cc,855.6000000238419,856,855.9000000953674,True,u,34077.700000047684,1373.8000000715256,1669831762559,1374,HRV,HRV_0143,2022-11-30 18:13:41
22,"[{'imgObject': {}, 'id': 'chicken nuggets2', 'src': '/static/foodstim60/chicken nuggets2.jpg', 'key': 'u', 'origWidth': 410, 'origHeight': 409, 'width': 410, 'height': 409, 'widthPercent': 0.45, 'rescaleHeight': False, 'trialN': 22, 'loaded': True, 'loadedTime': 2616.899999976158, 'positionName': 'LEFT', 'positionCoords': [511.6, 335.5], 'bid': 9.97}, {'imgObject': {}, 'id': 'luckycharms', 'src': '/static/foodstim60/luckycharms.jpg', 'key': 'i', 'origWidth': 410, 'origHeight': 409, 'width': 410, 'height': 409, 'widthPercent': 0.45, 'rescaleHeight': False, 'trialN': 22, 'loaded': True, 'loadedTime': 2648.7000000476837, 'positionName': 'RIGHT', 'positionCoords': [998.4, 335.5], 'bid': 9.69}]",34077.89999997616,1669831762559,chicken nuggets2,luckycharms,9.97,9.69,-0.28000000000000114,chicken nuggets2,809.7000000476837,810,810.0,True,u,35405.60000002384,1327.7000000476837,1669831763887,1328,HRV,HRV_0143,2022-11-30 18:13:41
23,"[{'imgObject': {}, 'id': 'bagel and cc', 'src': '/static/foodstim60/bagel and cc.jpg', 'key': 'u', 'origWidth': 410, 'origHeight': 410, 'width': 410, 'height': 410, 'widthPercent': 0.45, 'rescaleHeight': False, 'trialN': 23, 'loaded': True, 'loadedTime': 2627.100000023842, 'positionName': 'LEFT', 'positionCoords': [511.6, 335], 'bid': 8.68}, {'imgObject': {}, 'id': 'veggieswithdip', 'src': '/static/foodstim60/veggieswithdip.jpg', 'key': 'i', 'origWidth': 409, 'origHeight': 409, 'width': 409, 'height': 409, 'widthPercent': 0.45, 'rescaleHeight': False, 'trialN': 23, 'loaded': True, 'loadedTime': 2695, 'positionName': 'RIGHT', 'positionCoords': [998.4, 335.5], 'bid': 5.34}]",35405.700000047684,1669831763887,bagel and cc,veggieswithdip,8.68,5.34,-3.34,bagel and cc,1249.8999999761581,1250,1250.1999999284744,True,u,37170.0,1764.2999999523163,1669831765651,1764,HRV,HRV_0143,2022-11-30 18:13:41
24,"[{'imgObject': {}, 'id': 'sushi w_condiments', 'src': '/static/foodstim60/sushi w_condiments.jpg', 'key': 'u', 'origWidth': 410, 'origHeight': 410, 'width': 410, 'height': 410, 'widthPercent': 0.45, 'rescaleHeight': False, 'trialN': 24, 'loaded': True, 'loadedTime': 2709, 'positionName': 'LEFT', 'positionCoords': [511.6, 335], 'bid': 7.35}, {'imgObject': {}, 'id': 'tacos', 'src': '/static/foodstim60/tacos.jpg', 'key': 'i', 'origWidth': 411, 'origHeight': 411, 'width': 411, 'height': 411, 'widthPercent': 0.45, 'rescaleHeight': False, 'trialN': 24, 'loaded': True, 'loadedTime': 2648.899999976158, 'positionName': 'RIGHT', 'positionCoords': [998.4, 334.5], 'bid': 7.36}]",37170.200000047684,1669831765651,sushi w_condiments,tacos,7.35,7.36,0.010000000000000675,tacos,1261.3999999761581,1262,1261.7999999523163,True,i,38948.700000047684,1778.5,1669831767430,1779,HRV,HRV_0143,2022-11-30 18:13:41
25,"[{'imgObject': {}, 'id': 'omelette', 'src': '/static/foodstim60/omelette.jpg', 'key': 'u', 'origWidth': 410, 'origHeight': 409, 'width': 410, 'height': 409, 'widthPercent': 0.45, 'rescaleHeight': False, 'trialN': 25, 'loaded': True, 'loadedTime': 2626.3000000715256, 'positionName': 'LEFT', 'positionCoords': [511.6, 335.5], 'bid': 9.11}, {'imgObject': {}, 'id': 'banana', 'src': '/static/foodstim60/banana.jpg', 'key': 'i', 'origWidth': 410, 'origHeight': 410, 'width': 410, 'height': 410, 'widthPercent': 0.45, 'rescaleHeight': False, 'trialN': 25, 'loaded': True, 'loadedTime': 2609.100000023842, 'positionName': 'RIGHT', 'positionCoords': [998.4, 335], 'bid': 7.82}]",38948.800000071526,1669831767430,omelette,banana,9.11,7.82,-1.2899999999999991,omelette,906.7999999523163,907,907.0999999046326,True,u,40370.10000002384,1421.2999999523163,1669831768851,1421,HRV,HRV_0143,2022-11-30 18:13:41
26,"[{'imgObject': {}, 'id': 'Tribe humus pita', 'src': '/static/foodstim60/Tribe humus pita.jpg', 'key': 'u', 'origWidth': 411, 'origHeight': 411, 'width': 411, 'height': 411, 'widthPercent': 0.45, 'rescaleHeight': False, 'trialN': 26, 'loaded': True, 'loadedTime': 2553.399999976158, 'positionName': 'LEFT', 'positionCoords': [510.6, 334.5], 'bid': 9.27}, {'imgObject': {}, 'id': 'cherry tomato', 'src': '/static/foodstim60/cherry tomato.jpg', 'key': 'i', 'origWidth': 410, 'origHeight': 410, 'width': 410, 'height': 410, 'widthPercent': 0.45, 'rescaleHeight': False, 'trialN': 26, 'loaded': True, 'loadedTime': 2711.100000023842, 'positionName': 'RIGHT', 'positionCoords': [998.4, 335], 'bid': 5.97}]",40370.200000047684,1669831768851,Tribe humus pita,cherry tomato,9.27,5.97,-3.3,Tribe humus pita,1181.2999999523163,1182,1181.6999999284744,True,u,42070.89999997616,1700.6999999284744,1669831770552,1701,HRV,HRV_0143,2022-11-30 18:13:41
27,"[{'imgObject': {}, 'id': 'mango', 'src': '/static/foodstim60/mango.jpg', 'key': 'u', 'origWidth': 411, 'origHeight': 411, 'width': 411, 'height': 411, 'widthPercent': 0.45, 'rescaleHeight': False, 'trialN': 27, 'loaded': True, 'loadedTime': 2711.600000023842, 'positionName': 'LEFT', 'positionCoords': [510.6, 334.5], 'bid': 9.5}, {'imgObject': {}, 'id': 'ice cream sundae 002', 'src': '/static/foodstim60/ice cream sundae 002.jpg', 'key': 'i', 'origWidth': 409, 'origHeight': 409, 'width': 409, 'height': 409, 'widthPercent': 0.45, 'rescaleHeight': False, 'trialN': 27, 'loaded': True, 'loadedTime': 2631.899999976158, 'positionName': 'RIGHT', 'positionCoords': [998.4, 335.5], 'bid': 6.13}]",42071.0,1669831770552,mango,ice cream sundae 002,9.5,6.13,-3.37,mango,898.2000000476837,899,898.7000000476837,True,u,43483.10000002384,1412.1000000238419,1669831771964,1412,HRV,HRV_0143,2022-11-30 18:13:41
28,"[{'imgObject': {}, 'id': 'hotdog w must', 'src': '/static/foodstim60/hotdog w must.jpg', 'key': 'u', 'origWidth': 409, 'origHeight': 409, 'width': 409, 'height': 409, 'widthPercent': 0.45, 'rescaleHeight': False, 'trialN': 28, 'loaded': True, 'loadedTime': 2712.8000000715256, 'positionName': 'LEFT', 'positionCoords': [512.6, 335.5], 'bid': 9.92}, {'imgObject': {}, 'id': 'chickenfingers', 'src': '/static/foodstim60/chickenfingers.jpg', 'key': 'i', 'origWidth': 410, 'origHeight': 410, 'width': 410, 'height': 410, 'widthPercent': 0.45, 'rescaleHeight': False, 'trialN': 28, 'loaded': True, 'loadedTime': 2590.8000000715256, 'positionName': 'RIGHT', 'positionCoords': [998.4, 335], 'bid': 10}]",43483.5,1669831771965,hotdog w must,chickenfingers,9.92,10.0,0.08000000000000007,hotdog w must,901.2000000476837,901,901.3999999761581,True,u,44900.5,1417.0,1669831773382,1417,HRV,HRV_0143,2022-11-30 18:13:41
29,"[{'imgObject': {}, 'id': 'turkeysandwich', 'src': '/static/foodstim60/turkeysandwich.jpg', 'key': 'u', 'origWidth': 409, 'origHeight': 409, 'width': 409, 'height': 409, 'widthPercent': 0.45, 'rescaleHeight': False, 'trialN': 29, 'loaded': True, 'loadedTime': 2550.3000000715256, 'positionName': 'LEFT', 'positionCoords': [512.6, 335.5], 'bid': 9.98}, {'imgObject': {}, 'id': 'blueberries', 'src': '/static/foodstim60/blueberries.jpg', 'key': 'i', 'origWidth': 411, 'origHeight': 411, 'width': 411, 'height': 411, 'widthPercent': 0.45, 'rescaleHeight': False, 'trialN': 29, 'loaded': True, 'loadedTime': 2557.899999976158, 'positionName': 'RIGHT', 'positionCoords': [998.4, 334.5], 'bid': 7.68}]",44900.700000047684,1669831773382,turkeysandwich,blueberries,9.98,7.68,-2.3000000000000007,turkeysandwich,939.3999999761581,940,939.6999999284744,True,u,46352.5,1451.7999999523163,1669831774834,1452,HRV,HRV_0143,2022-11-30 18:13:41
30,"[{'imgObject': {}, 'id': 'baked potato', 'src': '/static/foodstim60/baked potato.jpg', 'key': 'u', 'origWidth': 409, 'origHeight': 410, 'width': 409, 'height': 410, 'widthPercent': 0.45, 'rescaleHeight': False, 'trialN': 30, 'loaded': True, 'loadedTime': 2610.7000000476837, 'positionName': 'LEFT', 'positionCoords': [512.6, 335], 'bid': 6.4}, {'imgObject': {}, 'id': 'turkey sandwich', 'src': '/static/foodstim60/turkey sandwich.jpg', 'key': 'i', 'origWidth': 409, 'origHeight': 409, 'width': 409, 'height': 409, 'widthPercent': 0.45, 'rescaleHeight': False, 'trialN': 30, 'loaded': True, 'loadedTime': 2716.8000000715256, 'positionName': 'RIGHT', 'positionCoords': [998.4, 335.5], 'bid': 9.75}]",46352.60000002384,1669831774834,baked potato,turkey sandwich,6.4,9.75,3.3499999999999996,turkey sandwich,894.8999999761581,895,895.2999999523163,True,i,47757.10000002384,1404.5,1669831776238,1404,HRV,HRV_0143,2022-11-30 18:13:41
31,"[{'imgObject': {}, 'id': 'luckycharms', 'src': '/static/foodstim60/luckycharms.jpg', 'key': 'u', 'origWidth': 410, 'origHeight': 409, 'width': 410, 'height': 409, 'widthPercent': 0.45, 'rescaleHeight': False, 'trialN': 31, 'loaded': True, 'loadedTime': 2636.7000000476837, 'positionName': 'LEFT', 'positionCoords': [511.6, 335.5], 'bid': 9.69}, {'imgObject': {}, 'id': 'rigatoni', 'src': '/static/foodstim60/rigatoni.jpg', 'key': 'i', 'origWidth': 411, 'origHeight': 411, 'width': 411, 'height': 411, 'widthPercent': 0.45, 'rescaleHeight': False, 'trialN': 31, 'loaded': True, 'loadedTime': 2717.600000023842, 'positionName': 'RIGHT', 'positionCoords': [998.4, 334.5], 'bid': 8.92}]",47757.200000047684,1669831776238,luckycharms,rigatoni,9.69,8.92,-0.7699999999999996,rigatoni,1370.2999999523163,1371,1370.6999999284744,True,i,49633.10000002384,1875.8999999761581,1669831778114,1876,HRV,HRV_0143,2022-11-30 18:13:41
32,"[{'imgObject': {}, 'id': 'eggs', 'src': '/static/foodstim60/eggs.jpg', 'key': 'u', 'origWidth': 409, 'origHeight': 409, 'width': 409, 'height': 409, 'widthPercent': 0.45, 'rescaleHeight': False, 'trialN': 32, 'loaded': True, 'loadedTime': 2735.7000000476837, 'positionName': 'LEFT', 'positionCoords': [512.6, 335.5], 'bid': 4.64}, {'imgObject': {}, 'id': 'orange slices', 'src': '/static/foodstim60/orange slices.jpg', 'key': 'i', 'origWidth': 409, 'origHeight': 410, 'width': 409, 'height': 410, 'widthPercent': 0.45, 'rescaleHeight': False, 'trialN': 32, 'loaded': True, 'loadedTime': 2736.5, 'positionName': 'RIGHT', 'positionCoords': [998.4, 335], 'bid': 5.39}]",49633.200000047684,1669831778114,eggs,orange slices,4.64,5.39,0.75,eggs,1302.3999999761581,1303,1302.6999999284744,True,u,51443.0,1809.7999999523163,1669831779924,1810,HRV,HRV_0143,2022-11-30 18:13:41
33,"[{'imgObject': {}, 'id': 'tacos', 'src': '/static/foodstim60/tacos.jpg', 'key': 'u', 'origWidth': 411, 'origHeight': 411, 'width': 411, 'height': 411, 'widthPercent': 0.45, 'rescaleHeight': False, 'trialN': 33, 'loaded': True, 'loadedTime': 2650.3000000715256, 'positionName': 'LEFT', 'positionCoords': [510.6, 334.5], 'bid': 7.36}, {'imgObject': {}, 'id': 'salmon', 'src': '/static/foodstim60/salmon.jpg', 'key': 'i', 'origWidth': 410, 'origHeight': 409, 'width': 410, 'height': 409, 'widthPercent': 0.45, 'rescaleHeight': False, 'trialN': 33, 'loaded': True, 'loadedTime': 2743.2000000476837, 'positionName': 'RIGHT', 'positionCoords': [998.4, 335.5], 'bid': 8.5}]",51443.10000002384,1669831779924,tacos,salmon,7.36,8.5,1.1399999999999997,tacos,700.3999999761581,701,700.7999999523163,True,u,52661.89999997616,1218.7999999523163,1669831781143,1219,HRV,HRV_0143,2022-11-30 18:13:41
34,"[{'imgObject': {}, 'id': 'ice cream sundae 002', 'src': '/static/foodstim60/ice cream sundae 002.jpg', 'key': 'u', 'origWidth': 409, 'origHeight': 409, 'width': 409, 'height': 409, 'widthPercent': 0.45, 'rescaleHeight': False, 'trialN': 34, 'loaded': True, 'loadedTime': 2633.3000000715256, 'positionName': 'LEFT', 'positionCoords': [512.6, 335.5], 'bid': 6.13}, {'imgObject': {}, 'id': 'mashed potato', 'src': '/static/foodstim60/mashed potato.jpg', 'key': 'i', 'origWidth': 409, 'origHeight': 409, 'width': 409, 'height': 409, 'widthPercent': 0.45, 'rescaleHeight': False, 'trialN': 34, 'loaded': True, 'loadedTime': 2749.100000023842, 'positionName': 'RIGHT', 'positionCoords': [998.4, 335.5], 'bid': 5.69}]",52662.0,1669831781143,ice cream sundae 002,mashed potato,6.13,5.69,-0.4399999999999995,mashed potato,1153.8999999761581,1154,1154.3000000715256,True,i,54320.39999997616,1658.3999999761581,1669831782801,1658,HRV,HRV_0143,2022-11-30 18:13:41
35,"[{'imgObject': {}, 'id': 'cheerios', 'src': '/static/foodstim60/cheerios.jpg', 'key': 'u', 'origWidth': 409, 'origHeight': 410, 'width': 409, 'height': 410, 'widthPercent': 0.45, 'rescaleHeight': False, 'trialN': 35, 'loaded': True, 'loadedTime': 2624.7000000476837, 'positionName': 'LEFT', 'positionCoords': [512.6, 335], 'bid': 9.07}, {'imgObject': {}, 'id': 'grilled chicken strips', 'src': '/static/foodstim60/grilled chicken strips.jpg', 'key': 'i', 'origWidth': 410, 'origHeight': 411, 'width': 410, 'height': 411, 'widthPercent': 0.45, 'rescaleHeight': False, 'trialN': 35, 'loaded': True, 'loadedTime': 2561.100000023842, 'positionName': 'RIGHT', 'positionCoords': [998.4, 334.5], 'bid': 9.96}]",54320.5,1669831782802,cheerios,grilled chicken strips,9.07,9.96,0.8900000000000006,grilled chicken strips,975.1000000238419,975,975.3000000715256,True,i,55802.89999997616,1482.3999999761581,1669831784284,1482,HRV,HRV_0143,2022-11-30 18:13:41
36,"[{'imgObject': {}, 'id': 'granola w milk', 'src': '/static/foodstim60/granola w milk.jpg', 'key': 'u', 'origWidth': 410, 'origHeight': 410, 'width': 410, 'height': 410, 'widthPercent': 0.45, 'rescaleHeight': False, 'trialN': 36, 'loaded': True, 'loadedTime': 2749.100000023842, 'positionName': 'LEFT', 'positionCoords': [511.6, 335], 'bid': 8.22}, {'imgObject': {}, 'id': 'sushi w_condiments', 'src': '/static/foodstim60/sushi w_condiments.jpg', 'key': 'i', 'origWidth': 410, 'origHeight': 410, 'width': 410, 'height': 410, 'widthPercent': 0.45, 'rescaleHeight': False, 'trialN': 36, 'loaded': True, 'loadedTime': 2696.600000023842, 'positionName': 'RIGHT', 'positionCoords': [998.4, 335], 'bid': 7.35}]",55802.89999997616,1669831784284,granola w milk,sushi w_condiments,8.22,7.35,-0.870000000000001,granola w milk,1180.7000000476837,1181,1181.1000000238419,True,u,57499.5,1696.6000000238419,1669831785981,1697,HRV,HRV_0143,2022-11-30 18:13:41
37,"[{'imgObject': {}, 'id': 'mac & cheese', 'src': '/static/foodstim60/mac & cheese.jpg', 'key': 'u', 'origWidth': 410, 'origHeight': 410, 'width': 410, 'height': 410, 'widthPercent': 0.45, 'rescaleHeight': False, 'trialN': 37, 'loaded': True, 'loadedTime': 2555.3000000715256, 'positionName': 'LEFT', 'positionCoords': [511.6, 335], 'bid': 8.44}, {'imgObject': {}, 'id': 'avocado', 'src': '/static/foodstim60/avocado.jpg', 'key': 'i', 'origWidth': 409, 'origHeight': 409, 'width': 409, 'height': 409, 'widthPercent': 0.45, 'rescaleHeight': False, 'trialN': 37, 'loaded': True, 'loadedTime': 2751, 'positionName': 'RIGHT', 'positionCoords': [998.4, 335.5], 'bid': 4.55}]",57499.60000002384,1669831785981,mac & cheese,avocado,8.44,4.55,-3.8899999999999997,mac & cheese,819.8999999761581,820,820.2000000476837,True,u,58836.300000071526,1336.7000000476837,1669831787317,1336,HRV,HRV_0143,2022-11-30 18:13:41
38,"[{'imgObject': {}, 'id': 'baked potato', 'src': '/static/foodstim60/baked potato.jpg', 'key': 'u', 'origWidth': 409, 'origHeight': 410, 'width': 409, 'height': 410, 'widthPercent': 0.45, 'rescaleHeight': False, 'trialN': 38, 'loaded': True, 'loadedTime': 2611.100000023842, 'positionName': 'LEFT', 'positionCoords': [512.6, 335], 'bid': 6.4}, {'imgObject': {}, 'id': 'granola w milk', 'src': '/static/foodstim60/granola w milk.jpg', 'key': 'i', 'origWidth': 410, 'origHeight': 410, 'width': 410, 'height': 410, 'widthPercent': 0.45, 'rescaleHeight': False, 'trialN': 38, 'loaded': True, 'loadedTime': 2750, 'positionName': 'RIGHT', 'positionCoords': [998.4, 335], 'bid': 8.22}]",58836.39999997616,1669831787317,baked potato,granola w milk,6.4,8.22,1.8200000000000003,granola w milk,1227.1000000238419,1228,1227.4000000953674,True,i,60581.89999997616,1745.5,1669831789063,1746,HRV,HRV_0143,2022-11-30 18:13:41
39,"[{'imgObject': {}, 'id': 'avocado', 'src': '/static/foodstim60/avocado.jpg', 'key': 'u', 'origWidth': 409, 'origHeight': 409, 'width': 409, 'height': 409, 'widthPercent': 0.45, 'rescaleHeight': False, 'trialN': 39, 'loaded': True, 'loadedTime': 2750.600000023842, 'positionName': 'LEFT', 'positionCoords': [512.6, 335.5], 'bid': 4.55}, {'imgObject': {}, 'id': 'veggieswithdip', 'src': '/static/foodstim60/veggieswithdip.jpg', 'key': 'i', 'origWidth': 409, 'origHeight': 409, 'width': 409, 'height': 409, 'widthPercent': 0.45, 'rescaleHeight': False, 'trialN': 39, 'loaded': True, 'loadedTime': 2695.100000023842, 'positionName': 'RIGHT', 'positionCoords': [998.4, 335.5], 'bid': 5.34}]",60582.10000002384,1669831789063,avocado,veggieswithdip,4.55,5.34,0.79,avocado,1265.3999999761581,1266,1265.7999999523163,True,u,62356.60000002384,1774.5,1669831790837,1774,HRV,HRV_0143,2022-11-30 18:13:41
40,"[{'imgObject': {}, 'id': 'salad w chicken', 'src': '/static/foodstim60/salad w chicken.jpg', 'key': 'u', 'origWidth': 411, 'origHeight': 411, 'width': 411, 'height': 411, 'widthPercent': 0.45, 'rescaleHeight': False, 'trialN': 40, 'loaded': True, 'loadedTime': 2615.600000023842, 'positionName': 'LEFT', 'positionCoords': [510.6, 334.5], 'bid': 9.19}, {'imgObject': {}, 'id': 'lox', 'src': '/static/foodstim60/lox.jpg', 'key': 'i', 'origWidth': 410, 'origHeight': 411, 'width': 410, 'height': 411, 'widthPercent': 0.45, 'rescaleHeight': False, 'trialN': 40, 'loaded': True, 'loadedTime': 2614.100000023842, 'positionName': 'RIGHT', 'positionCoords': [998.4, 334.5], 'bid': 5.92}]",62356.800000071526,1669831790837,salad w chicken,lox,9.19,5.92,-3.2699999999999996,salad w chicken,1122.7999999523163,1124,1123.1999999284744,True,u,63996.39999997616,1639.5999999046326,1669831792477,1640,HRV,HRV_0143,2022-11-30 18:13:41
41,"[{'imgObject': {}, 'id': 'avocado', 'src': '/static/foodstim60/avocado.jpg', 'key': 'u', 'origWidth': 409, 'origHeight': 409, 'width': 409, 'height': 409, 'widthPercent': 0.45, 'rescaleHeight': False, 'trialN': 41, 'loaded': True, 'loadedTime': 2750.899999976158, 'positionName': 'LEFT', 'positionCoords': [512.6, 335.5], 'bid': 4.55}, {'imgObject': {}, 'id': 'edamame', 'src': '/static/foodstim60/edamame.jpg', 'key': 'i', 'origWidth': 409, 'origHeight': 410, 'width': 409, 'height': 410, 'widthPercent': 0.45, 'rescaleHeight': False, 'trialN': 41, 'loaded': True, 'loadedTime': 2762.399999976158, 'positionName': 'RIGHT', 'positionCoords': [998.4, 335], 'bid': 4.93}]",63996.5,1669831792477,avocado,edamame,4.55,4.93,0.3799999999999999,avocado,1171.7000000476837,1172,1172.0,True,u,65682.20000004768,1685.7000000476837,1669831794163,1686,HRV,HRV_0143,2022-11-30 18:13:41
42,"[{'imgObject': {}, 'id': 'hashbrowns', 'src': '/static/foodstim60/hashbrowns.jpg', 'key': 'u', 'origWidth': 411, 'origHeight': 410, 'width': 411, 'height': 410, 'widthPercent': 0.45, 'rescaleHeight': False, 'trialN': 42, 'loaded': True, 'loadedTime': 2604.7000000476837, 'positionName': 'LEFT', 'positionCoords': [510.6, 335], 'bid': 7.81}, {'imgObject': {}, 'id': 'cheerios', 'src': '/static/foodstim60/cheerios.jpg', 'key': 'i', 'origWidth': 409, 'origHeight': 410, 'width': 409, 'height': 410, 'widthPercent': 0.45, 'rescaleHeight': False, 'trialN': 42, 'loaded': True, 'loadedTime': 2624.7000000476837, 'positionName': 'RIGHT', 'positionCoords': [998.4, 335], 'bid': 9.07}]",65682.30000007153,1669831794163,hashbrowns,cheerios,7.81,9.07,1.2600000000000007,cheerios,1109.3999999761581,1110,1109.7999999523163,True,i,67303.70000004768,1621.3999999761581,1669831795784,1621,HRV,HRV_0143,2022-11-30 18:13:41
43,"[{'imgObject': {}, 'id': 'mashed potato', 'src': '/static/foodstim60/mashed potato.jpg', 'key': 'u', 'origWidth': 409, 'origHeight': 409, 'width': 409, 'height': 409, 'widthPercent': 0.45, 'rescaleHeight': False, 'trialN': 43, 'loaded': True, 'loadedTime': 2748.899999976158, 'positionName': 'LEFT', 'positionCoords': [512.6, 335.5], 'bid': 5.69}, {'imgObject': {}, 'id': 'blueberries', 'src': '/static/foodstim60/blueberries.jpg', 'key': 'i', 'origWidth': 411, 'origHeight': 411, 'width': 411, 'height': 411, 'widthPercent': 0.45, 'rescaleHeight': False, 'trialN': 43, 'loaded': True, 'loadedTime': 2557.7000000476837, 'positionName': 'RIGHT', 'positionCoords': [998.4, 334.5], 'bid': 7.68}]",67303.70000004768,1669831795784,mashed potato,blueberries,5.69,7.68,1.9899999999999993,mashed potato,1383.7999999523163,1385,1384.1999999284744,True,u,69205.80000007153,1902.1000000238419,1669831797687,1903,HRV,HRV_0143,2022-11-30 18:13:41
44,"[{'imgObject': {}, 'id': 'steak', 'src': '/static/foodstim60/steak.jpg', 'key': 'u', 'origWidth': 410, 'origHeight': 410, 'width': 410, 'height': 410, 'widthPercent': 0.45, 'rescaleHeight': False, 'trialN': 44, 'loaded': True, 'loadedTime': 2762.5, 'positionName': 'LEFT', 'positionCoords': [511.6, 335], 'bid': 9.96}, {'imgObject': {}, 'id': 'strawberries', 'src': '/static/foodstim60/strawberries.jpg', 'key': 'i', 'origWidth': 410, 'origHeight': 410, 'width': 410, 'height': 410, 'widthPercent': 0.45, 'rescaleHeight': False, 'trialN': 44, 'loaded': True, 'loadedTime': 2764, 'positionName': 'RIGHT', 'positionCoords': [998.4, 335], 'bid': 7.16}]",69206.0,1669831797687,steak,strawberries,9.96,7.16,-2.8000000000000007,steak,689.6000000238419,690,689.8999999761581,True,u,70396.80000007153,1190.8000000715256,1669831798878,1191,HRV,HRV_0143,2022-11-30 18:13:41
45,"[{'imgObject': {}, 'id': 'fried eggs', 'src': '/static/foodstim60/fried eggs.jpg', 'key': 'u', 'origWidth': 410, 'origHeight': 410, 'width': 410, 'height': 410, 'widthPercent': 0.45, 'rescaleHeight': False, 'trialN': 45, 'loaded': True, 'loadedTime': 2619, 'positionName': 'LEFT', 'positionCoords': [511.6, 335], 'bid': 7.7}, {'imgObject': {}, 'id': 'burrito', 'src': '/static/foodstim60/burrito.jpg', 'key': 'i', 'origWidth': 410, 'origHeight': 410, 'width': 410, 'height': 410, 'widthPercent': 0.45, 'rescaleHeight': False, 'trialN': 45, 'loaded': True, 'loadedTime': 2776.5, 'positionName': 'RIGHT', 'positionCoords': [998.4, 335], 'bid': 8.46}]",70396.89999997616,1669831798878,fried eggs,burrito,7.7,8.46,0.7600000000000007,burrito,1458.7000000476837,1459,1459.1000000238419,True,i,72364.20000004768,1967.3000000715256,1669831800845,1967,HRV,HRV_0143,2022-11-30 18:13:41
46,"[{'imgObject': {}, 'id': 'eggs', 'src': '/static/foodstim60/eggs.jpg', 'key': 'u', 'origWidth': 409, 'origHeight': 409, 'width': 409, 'height': 409, 'widthPercent': 0.45, 'rescaleHeight': False, 'trialN': 46, 'loaded': True, 'loadedTime': 2732.600000023842, 'positionName': 'LEFT', 'positionCoords': [512.6, 335.5], 'bid': 4.64}, {'imgObject': {}, 'id': 'olives', 'src': '/static/foodstim60/olives.jpg', 'key': 'i', 'origWidth': 410, 'origHeight': 410, 'width': 410, 'height': 410, 'widthPercent': 0.45, 'rescaleHeight': False, 'trialN': 46, 'loaded': True, 'loadedTime': 2777.100000023842, 'positionName': 'RIGHT', 'positionCoords': [998.4, 335], 'bid': 6.26}]",72364.39999997616,1669831800845,eggs,olives,4.64,6.26,1.62,olives,1299.1000000238419,1300,1299.5,True,i,74171.5,1807.1000000238419,1669831802652,1807,HRV,HRV_0143,2022-11-30 18:13:41
47,"[{'imgObject': {}, 'id': 'shreddedwheatwithmilk', 'src': '/static/foodstim60/shreddedwheatwithmilk.jpg', 'key': 'u', 'origWidth': 410, 'origHeight': 410, 'width': 410, 'height': 410, 'widthPercent': 0.45, 'rescaleHeight': False, 'trialN': 47, 'loaded': True, 'loadedTime': 2623.5, 'positionName': 'LEFT', 'positionCoords': [511.6, 335], 'bid': 8.540000000000001}, {'imgObject': {}, 'id': 'hotdog w must', 'src': '/static/foodstim60/hotdog w must.jpg', 'key': 'i', 'origWidth': 409, 'origHeight': 409, 'width': 409, 'height': 409, 'widthPercent': 0.45, 'rescaleHeight': False, 'trialN': 47, 'loaded': True, 'loadedTime': 2714.2000000476837, 'positionName': 'RIGHT', 'positionCoords': [998.4, 335.5], 'bid': 9.92}]",74171.60000002384,1669831802652,shreddedwheatwithmilk,hotdog w must,8.540000000000001,9.92,1.379999999999999,hotdog w must,876.1000000238419,877,876.5,True,i,75560.70000004768,1389.1000000238419,1669831804041,1389,HRV,HRV_0143,2022-11-30 18:13:41
48,"[{'imgObject': {}, 'id': 'pear', 'src': '/static/foodstim60/pear.jpg', 'key': 'u', 'origWidth': 411, 'origHeight': 410, 'width': 411, 'height': 410, 'widthPercent': 0.45, 'rescaleHeight': False, 'trialN': 48, 'loaded': True, 'loadedTime': 2778.2000000476837, 'positionName': 'LEFT', 'positionCoords': [510.6, 335], 'bid': 5.86}, {'imgObject': {}, 'id': 'eggsalad', 'src': '/static/foodstim60/eggsalad.jpg', 'key': 'i', 'origWidth': 410, 'origHeight': 409, 'width': 410, 'height': 409, 'widthPercent': 0.45, 'rescaleHeight': False, 'trialN': 48, 'loaded': True, 'loadedTime': 2620, 'positionName': 'RIGHT', 'positionCoords': [998.4, 335.5], 'bid': 5.69}]",75560.89999997616,1669831804042,pear,eggsalad,5.86,5.69,-0.16999999999999993,eggsalad,1455.3000000715256,1455,1455.6000000238419,True,i,77530.39999997616,1969.5,1669831806011,1969,HRV,HRV_0143,2022-11-30 18:13:41
49,"[{'imgObject': {}, 'id': 'mac & cheese', 'src': '/static/foodstim60/mac & cheese.jpg', 'key': 'u', 'origWidth': 410, 'origHeight': 410, 'width': 410, 'height': 410, 'widthPercent': 0.45, 'rescaleHeight': False, 'trialN': 49, 'loaded': True, 'loadedTime': 2556.600000023842, 'positionName': 'LEFT', 'positionCoords': [511.6, 335], 'bid': 8.44}, {'imgObject': {}, 'id': 'strawberries', 'src': '/static/foodstim60/strawberries.jpg', 'key': 'i', 'origWidth': 410, 'origHeight': 410, 'width': 410, 'height': 410, 'widthPercent': 0.45, 'rescaleHeight': False, 'trialN': 49, 'loaded': True, 'loadedTime': 2775.399999976158, 'positionName': 'RIGHT', 'positionCoords': [998.4, 335], 'bid': 7.16}]",77530.5,1669831806011,mac & cheese,strawberries,8.44,7.16,-1.2799999999999994,mac & cheese,813.2000000476837,814,813.3999999761581,True,u,78844.10000002384,1313.6000000238419,1669831807325,1314,HRV,HRV_0143,2022-11-30 18:13:41
50,"[{'imgObject': {}, 'id': 'Grapes', 'src': '/static/foodstim60/Grapes.jpg', 'key': 'u', 'origWidth': 411, 'origHeight': 411, 'width': 411, 'height': 411, 'widthPercent': 0.45, 'rescaleHeight': False, 'trialN': 50, 'loaded': True, 'loadedTime': 2625.3000000715256, 'positionName': 'LEFT', 'positionCoords': [510.6, 334.5], 'bid': 8.58}, {'imgObject': {}, 'id': 'yogurt no spoon', 'src': '/static/foodstim60/yogurt no spoon.jpg', 'key': 'i', 'origWidth': 411, 'origHeight': 410, 'width': 411, 'height': 410, 'widthPercent': 0.45, 'rescaleHeight': False, 'trialN': 50, 'loaded': True, 'loadedTime': 2780.2000000476837, 'positionName': 'RIGHT', 'positionCoords': [998.4, 335], 'bid': 5.11}]",78844.20000004768,1669831807325,Grapes,yogurt no spoon,8.58,5.11,-3.4699999999999998,yogurt no spoon,1027.3999999761581,1028,1027.7999999523163,True,i,80382.39999997616,1538.1999999284744,1669831808863,1538,HRV,HRV_0143,2022-11-30 18:13:41
51,"[{'imgObject': {}, 'id': 'mango', 'src': '/static/foodstim60/mango.jpg', 'key': 'u', 'origWidth': 411, 'origHeight': 411, 'width': 411, 'height': 411, 'widthPercent': 0.45, 'rescaleHeight': False, 'trialN': 51, 'loaded': True, 'loadedTime': 2712.8000000715256, 'positionName': 'LEFT', 'positionCoords': [510.6, 334.5], 'bid': 9.5}, {'imgObject': {}, 'id': 'chickenfingers', 'src': '/static/foodstim60/chickenfingers.jpg', 'key': 'i', 'origWidth': 410, 'origHeight': 410, 'width': 410, 'height': 410, 'widthPercent': 0.45, 'rescaleHeight': False, 'trialN': 51, 'loaded': True, 'loadedTime': 2598.7000000476837, 'positionName': 'RIGHT', 'positionCoords': [998.4, 335], 'bid': 10}]",80382.5,1669831808863,mango,chickenfingers,9.5,10.0,0.5,chickenfingers,1082.3000000715256,1083,1082.7000000476837,True,i,81973.60000002384,1591.1000000238419,1669831810454,1591,HRV,HRV_0143,2022-11-30 18:13:41
52,"[{'imgObject': {}, 'id': 'bagel and cc', 'src': '/static/foodstim60/bagel and cc.jpg', 'key': 'u', 'origWidth': 410, 'origHeight': 410, 'width': 410, 'height': 410, 'widthPercent': 0.45, 'rescaleHeight': False, 'trialN': 52, 'loaded': True, 'loadedTime': 2626.399999976158, 'positionName': 'LEFT', 'positionCoords': [511.6, 335], 'bid': 8.68}, {'imgObject': {}, 'id': 'rigatoni', 'src': '/static/foodstim60/rigatoni.jpg', 'key': 'i', 'origWidth': 411, 'origHeight': 411, 'width': 411, 'height': 411, 'widthPercent': 0.45, 'rescaleHeight': False, 'trialN': 52, 'loaded': True, 'loadedTime': 2721.600000023842, 'positionName': 'RIGHT', 'positionCoords': [998.4, 334.5], 'bid': 8.92}]",81973.70000004768,1669831810454,bagel and cc,rigatoni,8.68,8.92,0.2400000000000002,bagel and cc,1057.8999999761581,1059,1058.1999999284744,True,u,83537.89999997616,1564.1999999284744,1669831812019,1565,HRV,HRV_0143,2022-11-30 18:13:41
53,"[{'imgObject': {}, 'id': 'chicken nuggets2', 'src': '/static/foodstim60/chicken nuggets2.jpg', 'key': 'u', 'origWidth': 410, 'origHeight': 409, 'width': 410, 'height': 409, 'widthPercent': 0.45, 'rescaleHeight': False, 'trialN': 53, 'loaded': True, 'loadedTime': 2618.100000023842, 'positionName': 'LEFT', 'positionCoords': [511.6, 335.5], 'bid': 9.97}, {'imgObject': {}, 'id': 'tacos', 'src': '/static/foodstim60/tacos.jpg', 'key': 'i', 'origWidth': 411, 'origHeight': 411, 'width': 411, 'height': 411, 'widthPercent': 0.45, 'rescaleHeight': False, 'trialN': 53, 'loaded': True, 'loadedTime': 2668.7000000476837, 'positionName': 'RIGHT', 'positionCoords': [998.4, 334.5], 'bid': 7.36}]",83538.0,1669831812019,chicken nuggets2,tacos,9.97,7.36,-2.6100000000000003,chicken nuggets2,749.8999999761581,750,750.5,True,u,84806.30000007153,1268.3000000715256,1669831813287,1268,HRV,HRV_0143,2022-11-30 18:13:41
54,"[{'imgObject': {}, 'id': 'popsicles', 'src': '/static/foodstim60/popsicles.jpg', 'key': 'u', 'origWidth': 410, 'origHeight': 410, 'width': 410, 'height': 410, 'widthPercent': 0.45, 'rescaleHeight': False, 'trialN': 54, 'loaded': True, 'loadedTime': 2781.399999976158, 'positionName': 'LEFT', 'positionCoords': [511.6, 335], 'bid': 8.48}, {'imgObject': {}, 'id': 'roastedpotatoes', 'src': '/static/foodstim60/roastedpotatoes.jpg', 'key': 'i', 'origWidth': 409, 'origHeight': 410, 'width': 409, 'height': 410, 'widthPercent': 0.45, 'rescaleHeight': False, 'trialN': 54, 'loaded': True, 'loadedTime': 2792.5, 'positionName': 'RIGHT', 'positionCoords': [998.4, 335], 'bid': 8.950000000000001}]",84806.30000007153,1669831813287,popsicles,roastedpotatoes,8.48,8.950000000000001,0.47000000000000064,roastedpotatoes,857.1999999284744,858,857.5,True,i,86169.5,1363.1999999284744,1669831814650,1363,HRV,HRV_0143,2022-11-30 18:13:41
55,"[{'imgObject': {}, 'id': 'apple slices', 'src': '/static/foodstim60/apple slices.jpg', 'key': 'u', 'origWidth': 409, 'origHeight': 410, 'width': 409, 'height': 410, 'widthPercent': 0.45, 'rescaleHeight': False, 'trialN': 55, 'loaded': True, 'loadedTime': 2620.8000000715256, 'positionName': 'LEFT', 'positionCoords': [512.6, 335], 'bid': 5.6000000000000005}, {'imgObject': {}, 'id': 'roastedpotatoes', 'src': '/static/foodstim60/roastedpotatoes.jpg', 'key': 'i', 'origWidth': 409, 'origHeight': 410, 'width': 409, 'height': 410, 'widthPercent': 0.45, 'rescaleHeight': False, 'trialN': 55, 'loaded': True, 'loadedTime': 2792.3000000715256, 'positionName': 'RIGHT', 'positionCoords': [998.4, 335], 'bid': 8.950000000000001}]",86169.60000002384,1669831814650,apple slices,roastedpotatoes,5.6000000000000005,8.950000000000001,3.3500000000000005,roastedpotatoes,1190.2999999523163,1191,1190.6000000238419,True,i,87873.0,1703.3999999761581,1669831816354,1704,HRV,HRV_0143,2022-11-30 18:13:41
56,"[{'imgObject': {}, 'id': 'raspberries', 'src': '/static/foodstim60/raspberries.jpg', 'key': 'u', 'origWidth': 411, 'origHeight': 411, 'width': 411, 'height': 411, 'widthPercent': 0.45, 'rescaleHeight': False, 'trialN': 56, 'loaded': True, 'loadedTime': 2518.7000000476837, 'positionName': 'LEFT', 'positionCoords': [510.6, 334.5], 'bid': 3.42}, {'imgObject': {}, 'id': 'seaweed', 'src': '/static/foodstim60/seaweed.jpg', 'key': 'i', 'origWidth': 410, 'origHeight': 410, 'width': 410, 'height': 410, 'widthPercent': 0.45, 'rescaleHeight': False, 'trialN': 56, 'loaded': True, 'loadedTime': 2630.600000023842, 'positionName': 'RIGHT', 'positionCoords': [998.4, 335], 'bid': 3.02}]",87873.10000002384,1669831816354,raspberries,seaweed,3.42,3.02,-0.3999999999999999,raspberries,1030.5,1031,1030.7999999523163,True,u,89418.39999997616,1545.2999999523163,1669831817899,1545,HRV,HRV_0143,2022-11-30 18:13:41
57,"[{'imgObject': {}, 'id': 'baked potato', 'src': '/static/foodstim60/baked potato.jpg', 'key': 'u', 'origWidth': 409, 'origHeight': 410, 'width': 409, 'height': 410, 'widthPercent': 0.45, 'rescaleHeight': False, 'trialN': 57, 'loaded': True, 'loadedTime': 2610.100000023842, 'positionName': 'LEFT', 'positionCoords': [512.6, 335], 'bid': 6.4}, {'imgObject': {}, 'id': 'cocktailshrimp', 'src': '/static/foodstim60/cocktailshrimp.jpg', 'key': 'i', 'origWidth': 410, 'origHeight': 410, 'width': 410, 'height': 410, 'widthPercent': 0.45, 'rescaleHeight': False, 'trialN': 57, 'loaded': True, 'loadedTime': 2627.8000000715256, 'positionName': 'RIGHT', 'positionCoords': [998.4, 335], 'bid': 6.59}]",89418.5,1669831817899,baked potato,cocktailshrimp,6.4,6.59,0.1899999999999995,cocktailshrimp,1045.3999999761581,1046,1045.8000000715256,True,i,90980.0,1561.5,1669831819461,1562,HRV,HRV_0143,2022-11-30 18:13:41
58,"[{'imgObject': {}, 'id': 'salad w chicken', 'src': '/static/foodstim60/salad w chicken.jpg', 'key': 'u', 'origWidth': 411, 'origHeight': 411, 'width': 411, 'height': 411, 'widthPercent': 0.45, 'rescaleHeight': False, 'trialN': 58, 'loaded': True, 'loadedTime': 2614.5, 'positionName': 'LEFT', 'positionCoords': [510.6, 334.5], 'bid': 9.19}, {'imgObject': {}, 'id': 'granola w milk', 'src': '/static/foodstim60/granola w milk.jpg', 'key': 'i', 'origWidth': 410, 'origHeight': 410, 'width': 410, 'height': 410, 'widthPercent': 0.45, 'rescaleHeight': False, 'trialN': 58, 'loaded': True, 'loadedTime': 2750.100000023842, 'positionName': 'RIGHT', 'positionCoords': [998.4, 335], 'bid': 8.22}]",90980.20000004768,1669831819461,salad w chicken,granola w milk,9.19,8.22,-0.9699999999999989,salad w chicken,955.2999999523163,956,955.6999999284744,True,u,92442.89999997616,1462.6999999284744,1669831820924,1463,HRV,HRV_0143,2022-11-30 18:13:41
59,"[{'imgObject': {}, 'id': 'popsicles', 'src': '/static/foodstim60/popsicles.jpg', 'key': 'u', 'origWidth': 410, 'origHeight': 410, 'width': 410, 'height': 410, 'widthPercent': 0.45, 'rescaleHeight': False, 'trialN': 59, 'loaded': True, 'loadedTime': 2791, 'positionName': 'LEFT', 'positionCoords': [511.6, 335], 'bid': 8.48}, {'imgObject': {}, 'id': 'sushi w_condiments', 'src': '/static/foodstim60/sushi w_condiments.jpg', 'key': 'i', 'origWidth': 410, 'origHeight': 410, 'width': 410, 'height': 410, 'widthPercent': 0.45, 'rescaleHeight': False, 'trialN': 59, 'loaded': True, 'loadedTime': 2709.399999976158, 'positionName': 'RIGHT', 'positionCoords': [998.4, 335], 'bid': 7.35}]",92443.10000002384,1669831820924,popsicles,sushi w_condiments,8.48,7.35,-1.1300000000000008,sushi w_condiments,932.3999999761581,933,932.7999999523163,True,i,93889.5,1446.3999999761581,1669831822370,1446,HRV,HRV_0143,2022-11-30 18:13:41
60,"[{'imgObject': {}, 'id': 'orange slices', 'src': '/static/foodstim60/orange slices.jpg', 'key': 'u', 'origWidth': 409, 'origHeight': 410, 'width': 409, 'height': 410, 'widthPercent': 0.45, 'rescaleHeight': False, 'trialN': 60, 'loaded': True, 'loadedTime': 2738.8000000715256, 'positionName': 'LEFT', 'positionCoords': [512.6, 335], 'bid': 5.39}, {'imgObject': {}, 'id': 'rigatoni', 'src': '/static/foodstim60/rigatoni.jpg', 'key': 'i', 'origWidth': 411, 'origHeight': 411, 'width': 411, 'height': 411, 'widthPercent': 0.45, 'rescaleHeight': False, 'trialN': 60, 'loaded': True, 'loadedTime': 2721.3000000715256, 'positionName': 'RIGHT', 'positionCoords': [998.4, 334.5], 'bid': 8.92}]",93889.70000004768,1669831822370,orange slices,rigatoni,5.39,8.92,3.5300000000000002,rigatoni,925.8999999761581,927,926.1999999284744,True,i,95326.5,1436.7999999523163,1669831823807,1437,HRV,HRV_0143,2022-11-30 18:13:41
61,"[{'imgObject': {}, 'id': 'salad w chicken', 'src': '/static/foodstim60/salad w chicken.jpg', 'key': 'u', 'origWidth': 411, 'origHeight': 411, 'width': 411, 'height': 411, 'widthPercent': 0.45, 'rescaleHeight': False, 'trialN': 61, 'loaded': True, 'loadedTime': 2615.600000023842, 'positionName': 'LEFT', 'positionCoords': [510.6, 334.5], 'bid': 9.19}, {'imgObject': {}, 'id': 'omelette', 'src': '/static/foodstim60/omelette.jpg', 'key': 'i', 'origWidth': 410, 'origHeight': 409, 'width': 410, 'height': 409, 'widthPercent': 0.45, 'rescaleHeight': False, 'trialN': 61, 'loaded': True, 'loadedTime': 2626.2000000476837, 'positionName': 'RIGHT', 'positionCoords': [998.4, 335.5], 'bid': 9.11}]",95326.70000004768,1669831823807,salad w chicken,omelette,9.19,9.11,-0.08000000000000007,omelette,1128.8999999761581,1130,1129.2999999523163,True,i,96967.0,1640.2999999523163,1669831825448,1641,HRV,HRV_0143,2022-11-30 18:13:41
62,"[{'imgObject': {}, 'id': 'salad w chicken', 'src': '/static/foodstim60/salad w chicken.jpg', 'key': 'u', 'origWidth': 411, 'origHeight': 411, 'width': 411, 'height': 411, 'widthPercent': 0.45, 'rescaleHeight': False, 'trialN': 62, 'loaded': True, 'loadedTime': 2615.399999976158, 'positionName': 'LEFT', 'positionCoords': [510.6, 334.5], 'bid': 9.19}, {'imgObject': {}, 'id': 'cheerios', 'src': '/static/foodstim60/cheerios.jpg', 'key': 'i', 'origWidth': 409, 'origHeight': 410, 'width': 409, 'height': 410, 'widthPercent': 0.45, 'rescaleHeight': False, 'trialN': 62, 'loaded': True, 'loadedTime': 2623.8000000715256, 'positionName': 'RIGHT', 'positionCoords': [998.4, 335], 'bid': 9.07}]",96967.10000002384,1669831825448,salad w chicken,cheerios,9.19,9.07,-0.11999999999999922,salad w chicken,921.0,921,921.3999999761581,True,u,98388.89999997616,1421.7999999523163,1669831826870,1422,HRV,HRV_0143,2022-11-30 18:13:41
63,"[{'imgObject': {}, 'id': 'yogurt no spoon', 'src': '/static/foodstim60/yogurt no spoon.jpg', 'key': 'u', 'origWidth': 411, 'origHeight': 410, 'width': 411, 'height': 410, 'widthPercent': 0.45, 'rescaleHeight': False, 'trialN': 63, 'loaded': True, 'loadedTime': 2780.5, 'positionName': 'LEFT', 'positionCoords': [510.6, 335], 'bid': 5.11}, {'imgObject': {}, 'id': 'raspberries', 'src': '/static/foodstim60/raspberries.jpg', 'key': 'i', 'origWidth': 411, 'origHeight': 411, 'width': 411, 'height': 411, 'widthPercent': 0.45, 'rescaleHeight': False, 'trialN': 63, 'loaded': True, 'loadedTime': 2519.399999976158, 'positionName': 'RIGHT', 'positionCoords': [998.4, 334.5], 'bid': 3.42}]",98389.10000002384,1669831826870,yogurt no spoon,raspberries,5.11,3.42,-1.6900000000000004,yogurt no spoon,1611.2999999523163,1612,1611.6000000238419,True,u,100510.60000002384,2121.5,1669831828991,2121,HRV,HRV_0143,2022-11-30 18:13:41
64,"[{'imgObject': {}, 'id': 'sushi w_condiments', 'src': '/static/foodstim60/sushi w_condiments.jpg', 'key': 'u', 'origWidth': 410, 'origHeight': 410, 'width': 410, 'height': 410, 'widthPercent': 0.45, 'rescaleHeight': False, 'trialN': 64, 'loaded': True, 'loadedTime': 2709.2000000476837, 'positionName': 'LEFT', 'positionCoords': [511.6, 335], 'bid': 7.35}, {'imgObject': {}, 'id': 'strawberries', 'src': '/static/foodstim60/strawberries.jpg', 'key': 'i', 'origWidth': 410, 'origHeight': 410, 'width': 410, 'height': 410, 'widthPercent': 0.45, 'rescaleHeight': False, 'trialN': 64, 'loaded': True, 'loadedTime': 2775.399999976158, 'positionName': 'RIGHT', 'positionCoords': [998.4, 335], 'bid': 7.16}]",100510.70000004768,1669831828991,sushi w_condiments,strawberries,7.35,7.16,-0.1899999999999995,sushi w_condiments,1264.7999999523163,1266,1265.1000000238419,True,u,102286.0,1775.2999999523163,1669831830767,1776,HRV,HRV_0143,2022-11-30 18:13:41
65,"[{'imgObject': {}, 'id': 'raspberries', 'src': '/static/foodstim60/raspberries.jpg', 'key': 'u', 'origWidth': 411, 'origHeight': 411, 'width': 411, 'height': 411, 'widthPercent': 0.45, 'rescaleHeight': False, 'trialN': 65, 'loaded': True, 'loadedTime': 2517.5, 'positionName': 'LEFT', 'positionCoords': [510.6, 334.5], 'bid': 3.42}, {'imgObject': {}, 'id': 'kiwi', 'src': '/static/foodstim60/kiwi.jpg', 'key': 'i', 'origWidth': 410, 'origHeight': 410, 'width': 410, 'height': 410, 'widthPercent': 0.45, 'rescaleHeight': False, 'trialN': 65, 'loaded': True, 'loadedTime': 2684.100000023842, 'positionName': 'RIGHT', 'positionCoords': [998.4, 335], 'bid': 3.09}]",102286.10000002384,1669831830767,raspberries,kiwi,3.42,3.09,-0.33000000000000007,raspberries,1041.7000000476837,1042,1041.8999999761581,True,u,103840.39999997616,1554.2999999523163,1669831832321,1554,HRV,HRV_0143,2022-11-30 18:13:41
66,"[{'imgObject': {}, 'id': 'mango', 'src': '/static/foodstim60/mango.jpg', 'key': 'u', 'origWidth': 411, 'origHeight': 411, 'width': 411, 'height': 411, 'widthPercent': 0.45, 'rescaleHeight': False, 'trialN': 66, 'loaded': True, 'loadedTime': 2712.5, 'positionName': 'LEFT', 'positionCoords': [510.6, 334.5], 'bid': 9.5}, {'imgObject': {}, 'id': 'grilled chicken strips', 'src': '/static/foodstim60/grilled chicken strips.jpg', 'key': 'i', 'origWidth': 410, 'origHeight': 411, 'width': 410, 'height': 411, 'widthPercent': 0.45, 'rescaleHeight': False, 'trialN': 66, 'loaded': True, 'loadedTime': 2561.600000023842, 'positionName': 'RIGHT', 'positionCoords': [998.4, 334.5], 'bid': 9.96}]",103840.5,1669831832321,mango,grilled chicken strips,9.5,9.96,0.46000000000000085,grilled chicken strips,1071.1000000238419,1072,1071.3999999761581,True,i,105431.0,1590.5,1669831833912,1591,HRV,HRV_0143,2022-11-30 18:13:41
67,"[{'imgObject': {}, 'id': 'strawberries', 'src': '/static/foodstim60/strawberries.jpg', 'key': 'u', 'origWidth': 410, 'origHeight': 410, 'width': 410, 'height': 410, 'widthPercent': 0.45, 'rescaleHeight': False, 'trialN': 67, 'loaded': True, 'loadedTime': 2774.899999976158, 'positionName': 'LEFT', 'positionCoords': [511.6, 335], 'bid': 7.16}, {'imgObject': {}, 'id': 'hashbrowns', 'src': '/static/foodstim60/hashbrowns.jpg', 'key': 'i', 'origWidth': 411, 'origHeight': 410, 'width': 411, 'height': 410, 'widthPercent': 0.45, 'rescaleHeight': False, 'trialN': 67, 'loaded': True, 'loadedTime': 2604.3000000715256, 'positionName': 'RIGHT', 'positionCoords': [998.4, 335], 'bid': 7.81}]",105431.10000002384,1669831833912,strawberries,hashbrowns,7.16,7.81,0.6499999999999995,strawberries,1034.1000000238419,1034,1034.5,True,u,106972.10000002384,1541.0,1669831835453,1541,HRV,HRV_0143,2022-11-30 18:13:41
68,"[{'imgObject': {}, 'id': 'steak', 'src': '/static/foodstim60/steak.jpg', 'key': 'u', 'origWidth': 410, 'origHeight': 410, 'width': 410, 'height': 410, 'widthPercent': 0.45, 'rescaleHeight': False, 'trialN': 68, 'loaded': True, 'loadedTime': 2763.7000000476837, 'positionName': 'LEFT', 'positionCoords': [511.6, 335], 'bid': 9.96}, {'imgObject': {}, 'id': 'raisin bran w milk', 'src': '/static/foodstim60/raisin bran w milk.jpg', 'key': 'i', 'origWidth': 411, 'origHeight': 411, 'width': 411, 'height': 411, 'widthPercent': 0.45, 'rescaleHeight': False, 'trialN': 68, 'loaded': True, 'loadedTime': 2571.600000023842, 'positionName': 'RIGHT', 'positionCoords': [998.4, 334.5], 'bid': 9.02}]",106972.30000007153,1669831835453,steak,raisin bran w milk,9.96,9.02,-0.9400000000000013,steak,891.1999999284744,892,891.6999999284744,True,u,108383.0,1410.6999999284744,1669831836864,1411,HRV,HRV_0143,2022-11-30 18:13:41
69,"[{'imgObject': {}, 'id': 'pear', 'src': '/static/foodstim60/pear.jpg', 'key': 'u', 'origWidth': 411, 'origHeight': 410, 'width': 411, 'height': 410, 'widthPercent': 0.45, 'rescaleHeight': False, 'trialN': 69, 'loaded': True, 'loadedTime': 2779, 'positionName': 'LEFT', 'positionCoords': [510.6, 335], 'bid': 5.86}, {'imgObject': {}, 'id': 'corn cob', 'src': '/static/foodstim60/corn cob.jpg', 'key': 'i', 'origWidth': 411, 'origHeight': 411, 'width': 411, 'height': 411, 'widthPercent': 0.45, 'rescaleHeight': False, 'trialN': 69, 'loaded': True, 'loadedTime': 2631.2000000476837, 'positionName': 'RIGHT', 'positionCoords': [998.4, 334.5], 'bid': 2.47}]",108383.10000002384,1669831836864,pear,corn cob,5.86,2.47,-3.39,corn cob,1121.0,1121,1121.2999999523163,True,i,110014.0,1630.8999999761581,1669831838495,1631,HRV,HRV_0143,2022-11-30 18:13:41
70,"[{'imgObject': {}, 'id': 'orange slices', 'src': '/static/foodstim60/orange slices.jpg', 'key': 'u', 'origWidth': 409, 'origHeight': 410, 'width': 409, 'height': 410, 'widthPercent': 0.45, 'rescaleHeight': False, 'trialN': 70, 'loaded': True, 'loadedTime': 2739, 'positionName': 'LEFT', 'positionCoords': [512.6, 335], 'bid': 5.39}, {'imgObject': {}, 'id': 'seaweed', 'src': '/static/foodstim60/seaweed.jpg', 'key': 'i', 'origWidth': 410, 'origHeight': 410, 'width': 410, 'height': 410, 'widthPercent': 0.45, 'rescaleHeight': False, 'trialN': 70, 'loaded': True, 'loadedTime': 2630.5, 'positionName': 'RIGHT', 'positionCoords': [998.4, 335], 'bid': 3.02}]",110014.0,1669831838495,orange slices,seaweed,5.39,3.02,-2.3699999999999997,orange slices,1121.6000000238419,1122,1122.0,True,u,111655.39999997616,1641.3999999761581,1669831840136,1641,HRV,HRV_0143,2022-11-30 18:13:41
71,"[{'imgObject': {}, 'id': 'tacos', 'src': '/static/foodstim60/tacos.jpg', 'key': 'u', 'origWidth': 411, 'origHeight': 411, 'width': 411, 'height': 411, 'widthPercent': 0.45, 'rescaleHeight': False, 'trialN': 71, 'loaded': True, 'loadedTime': 2650.100000023842, 'positionName': 'LEFT', 'positionCoords': [510.6, 334.5], 'bid': 7.36}, {'imgObject': {}, 'id': 'cherries', 'src': '/static/foodstim60/cherries.jpg', 'key': 'i', 'origWidth': 410, 'origHeight': 411, 'width': 410, 'height': 411, 'widthPercent': 0.45, 'rescaleHeight': False, 'trialN': 71, 'loaded': True, 'loadedTime': 2559.3000000715256, 'positionName': 'RIGHT', 'positionCoords': [998.4, 334.5], 'bid': 7.19}]",111655.5,1669831840136,tacos,cherries,7.36,7.19,-0.16999999999999993,tacos,720.2000000476837,721,720.5,True,u,112882.10000002384,1226.6000000238419,1669831841363,1227,HRV,HRV_0143,2022-11-30 18:13:41
72,"[{'imgObject': {}, 'id': 'strawberries', 'src': '/static/foodstim60/strawberries.jpg', 'key': 'u', 'origWidth': 410, 'origHeight': 410, 'width': 410, 'height': 410, 'widthPercent': 0.45, 'rescaleHeight': False, 'trialN': 72, 'loaded': True, 'loadedTime': 2764.8000000715256, 'positionName': 'LEFT', 'positionCoords': [511.6, 335], 'bid': 7.16}, {'imgObject': {}, 'id': 'yogurt no spoon', 'src': '/static/foodstim60/yogurt no spoon.jpg', 'key': 'i', 'origWidth': 411, 'origHeight': 410, 'width': 411, 'height': 410, 'widthPercent': 0.45, 'rescaleHeight': False, 'trialN': 72, 'loaded': True, 'loadedTime': 2780.3000000715256, 'positionName': 'RIGHT', 'positionCoords': [998.4, 335], 'bid': 5.11}]",112882.30000007153,1669831841363,strawberries,yogurt no spoon,7.16,5.11,-2.05,strawberries,1286.3999999761581,1287,1286.8999999761581,True,u,114679.5,1797.1999999284744,1669831843160,1797,HRV,HRV_0143,2022-11-30 18:13:41
73,"[{'imgObject': {}, 'id': 'hotdog w must', 'src': '/static/foodstim60/hotdog w must.jpg', 'key': 'u', 'origWidth': 409, 'origHeight': 409, 'width': 409, 'height': 409, 'widthPercent': 0.45, 'rescaleHeight': False, 'trialN': 73, 'loaded': True, 'loadedTime': 2714.8000000715256, 'positionName': 'LEFT', 'positionCoords': [512.6, 335.5], 'bid': 9.92}, {'imgObject': {}, 'id': 'cocktailshrimp', 'src': '/static/foodstim60/cocktailshrimp.jpg', 'key': 'i', 'origWidth': 410, 'origHeight': 410, 'width': 410, 'height': 410, 'widthPercent': 0.45, 'rescaleHeight': False, 'trialN': 73, 'loaded': True, 'loadedTime': 2627.7000000476837, 'positionName': 'RIGHT', 'positionCoords': [998.4, 335], 'bid': 6.59}]",114679.60000002384,1669831843160,hotdog w must,cocktailshrimp,9.92,6.59,-3.33,cocktailshrimp,1351.8999999761581,1353,1352.2000000476837,True,i,116550.30000007153,1870.7000000476837,1669831845031,1871,HRV,HRV_0143,2022-11-30 18:13:41
74,"[{'imgObject': {}, 'id': 'grilled chicken strips', 'src': '/static/foodstim60/grilled chicken strips.jpg', 'key': 'u', 'origWidth': 410, 'origHeight': 411, 'width': 410, 'height': 411, 'widthPercent': 0.45, 'rescaleHeight': False, 'trialN': 74, 'loaded': True, 'loadedTime': 2560.399999976158, 'positionName': 'LEFT', 'positionCoords': [511.6, 334.5], 'bid': 9.96}, {'imgObject': {}, 'id': 'hotdog w must', 'src': '/static/foodstim60/hotdog w must.jpg', 'key': 'i', 'origWidth': 409, 'origHeight': 409, 'width': 409, 'height': 409, 'widthPercent': 0.45, 'rescaleHeight': False, 'trialN': 74, 'loaded': True, 'loadedTime': 2714.7000000476837, 'positionName': 'RIGHT', 'positionCoords': [998.4, 335.5], 'bid': 9.92}]",116550.5,1669831845031,grilled chicken strips,hotdog w must,9.96,9.92,-0.040000000000000924,grilled chicken strips,961.2000000476837,962,961.3999999761581,True,u,118027.5,1477.0,1669831846508,1477,HRV,HRV_0143,2022-11-30 18:13:41
75,"[{'imgObject': {}, 'id': 'cheerios', 'src': '/static/foodstim60/cheerios.jpg', 'key': 'u', 'origWidth': 409, 'origHeight': 410, 'width': 409, 'height': 410, 'widthPercent': 0.45, 'rescaleHeight': False, 'trialN': 75, 'loaded': True, 'loadedTime': 2624.3000000715256, 'positionName': 'LEFT', 'positionCoords': [512.6, 335], 'bid': 9.07}, {'imgObject': {}, 'id': 'pear', 'src': '/static/foodstim60/pear.jpg', 'key': 'i', 'origWidth': 411, 'origHeight': 410, 'width': 411, 'height': 410, 'widthPercent': 0.45, 'rescaleHeight': False, 'trialN': 75, 'loaded': True, 'loadedTime': 2779, 'positionName': 'RIGHT', 'positionCoords': [998.4, 335], 'bid': 5.86}]",118027.60000002384,1669831846508,cheerios,pear,9.07,5.86,-3.21,cheerios,1467.7999999523163,1468,1468.1000000238419,True,u,120012.20000004768,1984.6000000238419,1669831848493,1985,HRV,HRV_0143,2022-11-30 18:13:41
76,"[{'imgObject': {}, 'id': 'cantaloupe', 'src': '/static/foodstim60/cantaloupe.jpg', 'key': 'u', 'origWidth': 409, 'origHeight': 409, 'width': 409, 'height': 409, 'widthPercent': 0.45, 'rescaleHeight': False, 'trialN': 76, 'loaded': True, 'loadedTime': 2613.100000023842, 'positionName': 'LEFT', 'positionCoords': [512.6, 335.5], 'bid': 4.98}, {'imgObject': {}, 'id': 'eggs', 'src': '/static/foodstim60/eggs.jpg', 'key': 'i', 'origWidth': 409, 'origHeight': 409, 'width': 409, 'height': 409, 'widthPercent': 0.45, 'rescaleHeight': False, 'trialN': 76, 'loaded': True, 'loadedTime': 2735.600000023842, 'positionName': 'RIGHT', 'positionCoords': [998.4, 335.5], 'bid': 4.64}]",120012.30000007153,1669831848493,cantaloupe,eggs,4.98,4.64,-0.34000000000000075,eggs,1444.3999999761581,1445,1444.8999999761581,True,i,121964.30000007153,1952.0,1669831850446,1953,HRV,HRV_0143,2022-11-30 18:13:41
77,"[{'imgObject': {}, 'id': 'mashed potato', 'src': '/static/foodstim60/mashed potato.jpg', 'key': 'u', 'origWidth': 409, 'origHeight': 409, 'width': 409, 'height': 409, 'widthPercent': 0.45, 'rescaleHeight': False, 'trialN': 77, 'loaded': True, 'loadedTime': 2748.8000000715256, 'positionName': 'LEFT', 'positionCoords': [512.6, 335.5], 'bid': 5.69}, {'imgObject': {}, 'id': 'pear', 'src': '/static/foodstim60/pear.jpg', 'key': 'i', 'origWidth': 411, 'origHeight': 410, 'width': 411, 'height': 410, 'widthPercent': 0.45, 'rescaleHeight': False, 'trialN': 77, 'loaded': True, 'loadedTime': 2779.2000000476837, 'positionName': 'RIGHT', 'positionCoords': [998.4, 335], 'bid': 5.86}]",121964.39999997616,1669831850446,mashed potato,pear,5.69,5.86,0.16999999999999993,mashed potato,955.1000000238419,955,955.4000000953674,True,u,123432.30000007153,1467.9000000953674,1669831851914,1468,HRV,HRV_0143,2022-11-30 18:13:41
78,"[{'imgObject': {}, 'id': 'cantaloupe', 'src': '/static/foodstim60/cantaloupe.jpg', 'key': 'u', 'origWidth': 409, 'origHeight': 409, 'width': 409, 'height': 409, 'widthPercent': 0.45, 'rescaleHeight': False, 'trialN': 78, 'loaded': True, 'loadedTime': 2613.2000000476837, 'positionName': 'LEFT', 'positionCoords': [512.6, 335.5], 'bid': 4.98}, {'imgObject': {}, 'id': 'seaweed', 'src': '/static/foodstim60/seaweed.jpg', 'key': 'i', 'origWidth': 410, 'origHeight': 410, 'width': 410, 'height': 410, 'widthPercent': 0.45, 'rescaleHeight': False, 'trialN': 78, 'loaded': True, 'loadedTime': 2630.600000023842, 'positionName': 'RIGHT', 'positionCoords': [998.4, 335], 'bid': 3.02}]",123432.30000007153,1669831851914,cantaloupe,seaweed,4.98,3.02,-1.9600000000000004,cantaloupe,1191.2999999523163,1192,1191.7999999523163,True,u,125137.5,1705.1999999284744,1669831853619,1705,HRV,HRV_0143,2022-11-30 18:13:41
79,"[{'imgObject': {}, 'id': 'salmon', 'src': '/static/foodstim60/salmon.jpg', 'key': 'u', 'origWidth': 410, 'origHeight': 409, 'width': 410, 'height': 409, 'widthPercent': 0.45, 'rescaleHeight': False, 'trialN': 79, 'loaded': True, 'loadedTime': 2739.399999976158, 'positionName': 'LEFT', 'positionCoords': [511.6, 335.5], 'bid': 8.5}, {'imgObject': {}, 'id': 'cantaloupe', 'src': '/static/foodstim60/cantaloupe.jpg', 'key': 'i', 'origWidth': 409, 'origHeight': 409, 'width': 409, 'height': 409, 'widthPercent': 0.45, 'rescaleHeight': False, 'trialN': 79, 'loaded': True, 'loadedTime': 2612.899999976158, 'positionName': 'RIGHT', 'positionCoords': [998.4, 335.5], 'bid': 4.98}]",125137.70000004768,1669831853619,salmon,cantaloupe,8.5,4.98,-3.5199999999999996,salmon,702.2999999523163,703,702.6000000238419,True,u,126345.5,1207.7999999523163,1669831854827,1208,HRV,HRV_0143,2022-11-30 18:13:41
80,"[{'imgObject': {}, 'id': 'lox', 'src': '/static/foodstim60/lox.jpg', 'key': 'u', 'origWidth': 410, 'origHeight': 411, 'width': 410, 'height': 411, 'widthPercent': 0.45, 'rescaleHeight': False, 'trialN': 80, 'loaded': True, 'loadedTime': 2613.3000000715256, 'positionName': 'LEFT', 'positionCoords': [511.6, 334.5], 'bid': 5.92}, {'imgObject': {}, 'id': 'kiwi', 'src': '/static/foodstim60/kiwi.jpg', 'key': 'i', 'origWidth': 410, 'origHeight': 410, 'width': 410, 'height': 410, 'widthPercent': 0.45, 'rescaleHeight': False, 'trialN': 80, 'loaded': True, 'loadedTime': 2682.5, 'positionName': 'RIGHT', 'positionCoords': [998.4, 335], 'bid': 3.09}]",126345.60000002384,1669831854827,lox,kiwi,5.92,3.09,-2.83,lox,855.2000000476837,856,855.6000000238419,True,u,127716.30000007153,1370.7000000476837,1669831856198,1371,HRV,HRV_0143,2022-11-30 18:13:41
81,"[{'imgObject': {}, 'id': 'olives', 'src': '/static/foodstim60/olives.jpg', 'key': 'u', 'origWidth': 410, 'origHeight': 410, 'width': 410, 'height': 410, 'widthPercent': 0.45, 'rescaleHeight': False, 'trialN': 81, 'loaded': True, 'loadedTime': 2777.8000000715256, 'positionName': 'LEFT', 'positionCoords': [511.6, 335], 'bid': 6.26}, {'imgObject': {}, 'id': 'hashbrowns', 'src': '/static/foodstim60/hashbrowns.jpg', 'key': 'i', 'origWidth': 411, 'origHeight': 410, 'width': 411, 'height': 410, 'widthPercent': 0.45, 'rescaleHeight': False, 'trialN': 81, 'loaded': True, 'loadedTime': 2605.600000023842, 'positionName': 'RIGHT', 'positionCoords': [998.4, 335], 'bid': 7.81}]",127716.5,1669831856198,olives,hashbrowns,6.26,7.81,1.5499999999999998,olives,1091.3000000715256,1092,1091.8000000715256,True,u,129314.20000004768,1597.7000000476837,1669831857796,1598,HRV,HRV_0143,2022-11-30 18:13:41
82,"[{'imgObject': {}, 'id': 'yogurt no spoon', 'src': '/static/foodstim60/yogurt no spoon.jpg', 'key': 'u', 'origWidth': 411, 'origHeight': 410, 'width': 411, 'height': 410, 'widthPercent': 0.45, 'rescaleHeight': False, 'trialN': 82, 'loaded': True, 'loadedTime': 2779.399999976158, 'positionName': 'LEFT', 'positionCoords': [510.6, 335], 'bid': 5.11}, {'imgObject': {}, 'id': 'fruitsalad', 'src': '/static/foodstim60/fruitsalad.jpg', 'key': 'i', 'origWidth': 410, 'origHeight': 410, 'width': 410, 'height': 410, 'widthPercent': 0.45, 'rescaleHeight': False, 'trialN': 82, 'loaded': True, 'loadedTime': 2670.2000000476837, 'positionName': 'RIGHT', 'positionCoords': [998.4, 335], 'bid': 5.08}]",129314.39999997616,1669831857796,yogurt no spoon,fruitsalad,5.11,5.08,-0.03000000000000025,yogurt no spoon,1437.1000000238419,1437,1437.5,True,u,131255.30000007153,1940.9000000953674,1669831859737,1941,HRV,HRV_0143,2022-11-30 18:13:41
83,"[{'imgObject': {}, 'id': 'mac & cheese', 'src': '/static/foodstim60/mac & cheese.jpg', 'key': 'u', 'origWidth': 410, 'origHeight': 410, 'width': 410, 'height': 410, 'widthPercent': 0.45, 'rescaleHeight': False, 'trialN': 83, 'loaded': True, 'loadedTime': 2556.100000023842, 'positionName': 'LEFT', 'positionCoords': [511.6, 335], 'bid': 8.44}, {'imgObject': {}, 'id': 'mango', 'src': '/static/foodstim60/mango.jpg', 'key': 'i', 'origWidth': 411, 'origHeight': 411, 'width': 411, 'height': 411, 'widthPercent': 0.45, 'rescaleHeight': False, 'trialN': 83, 'loaded': True, 'loadedTime': 2712.600000023842, 'positionName': 'RIGHT', 'positionCoords': [998.4, 334.5], 'bid': 9.5}]",131255.5,1669831859737,mac & cheese,mango,8.44,9.5,1.0600000000000005,mac & cheese,784.6000000238419,785,785.1000000238419,True,u,132557.10000002384,1301.6000000238419,1669831861038,1301,HRV,HRV_0143,2022-11-30 18:13:41
84,"[{'imgObject': {}, 'id': 'blueberries', 'src': '/static/foodstim60/blueberries.jpg', 'key': 'u', 'origWidth': 411, 'origHeight': 411, 'width': 411, 'height': 411, 'widthPercent': 0.45, 'rescaleHeight': False, 'trialN': 84, 'loaded': True, 'loadedTime': 2557.5, 'positionName': 'LEFT', 'positionCoords': [510.6, 334.5], 'bid': 7.68}, {'imgObject': {}, 'id': 'fried eggs', 'src': '/static/foodstim60/fried eggs.jpg', 'key': 'i', 'origWidth': 410, 'origHeight': 410, 'width': 410, 'height': 410, 'widthPercent': 0.45, 'rescaleHeight': False, 'trialN': 84, 'loaded': True, 'loadedTime': 2618.399999976158, 'positionName': 'RIGHT', 'positionCoords': [998.4, 335], 'bid': 7.7}]",132557.20000004768,1669831861039,blueberries,fried eggs,7.68,7.7,0.020000000000000462,fried eggs,883.1000000238419,883,883.3999999761581,True,i,133952.70000004768,1395.5,1669831862434,1395,HRV,HRV_0143,2022-11-30 18:13:41
85,"[{'imgObject': {}, 'id': 'lox', 'src': '/static/foodstim60/lox.jpg', 'key': 'u', 'origWidth': 410, 'origHeight': 411, 'width': 410, 'height': 411, 'widthPercent': 0.45, 'rescaleHeight': False, 'trialN': 85, 'loaded': True, 'loadedTime': 2613.899999976158, 'positionName': 'LEFT', 'positionCoords': [511.6, 334.5], 'bid': 5.92}, {'imgObject': {}, 'id': 'blackbeanswithrice', 'src': '/static/foodstim60/blackbeanswithrice.jpg', 'key': 'i', 'origWidth': 410, 'origHeight': 410, 'width': 410, 'height': 410, 'widthPercent': 0.45, 'rescaleHeight': False, 'trialN': 85, 'loaded': True, 'loadedTime': 2793.8000000715256, 'positionName': 'RIGHT', 'positionCoords': [998.4, 335], 'bid': 5.88}]",133952.89999997616,1669831862434,lox,blackbeanswithrice,5.92,5.88,-0.040000000000000036,lox,966.6000000238419,967,967.0,True,u,135437.80000007153,1484.9000000953674,1669831863919,1485,HRV,HRV_0143,2022-11-30 18:13:41
86,"[{'imgObject': {}, 'id': 'blackbeanswithrice', 'src': '/static/foodstim60/blackbeanswithrice.jpg', 'key': 'u', 'origWidth': 410, 'origHeight': 410, 'width': 410, 'height': 410, 'widthPercent': 0.45, 'rescaleHeight': False, 'trialN': 86, 'loaded': True, 'loadedTime': 2793.899999976158, 'positionName': 'LEFT', 'positionCoords': [511.6, 335], 'bid': 5.88}, {'imgObject': {}, 'id': 'baked potato', 'src': '/static/foodstim60/baked potato.jpg', 'key': 'i', 'origWidth': 409, 'origHeight': 410, 'width': 409, 'height': 410, 'widthPercent': 0.45, 'rescaleHeight': False, 'trialN': 86, 'loaded': True, 'loadedTime': 2611.100000023842, 'positionName': 'RIGHT', 'positionCoords': [998.4, 335], 'bid': 6.4}]",135437.89999997616,1669831863919,blackbeanswithrice,baked potato,5.88,6.4,0.5200000000000005,baked potato,1097.6000000238419,1098,1097.9000000953674,True,i,137043.39999997616,1605.5,1669831865525,1606,HRV,HRV_0143,2022-11-30 18:13:41
87,"[{'imgObject': {}, 'id': 'steak', 'src': '/static/foodstim60/steak.jpg', 'key': 'u', 'origWidth': 410, 'origHeight': 410, 'width': 410, 'height': 410, 'widthPercent': 0.45, 'rescaleHeight': False, 'trialN': 87, 'loaded': True, 'loadedTime': 2763.5, 'positionName': 'LEFT', 'positionCoords': [511.6, 335], 'bid': 9.96}, {'imgObject': {}, 'id': 'Grapes', 'src': '/static/foodstim60/Grapes.jpg', 'key': 'i', 'origWidth': 411, 'origHeight': 411, 'width': 411, 'height': 411, 'widthPercent': 0.45, 'rescaleHeight': False, 'trialN': 87, 'loaded': True, 'loadedTime': 2625.5, 'positionName': 'RIGHT', 'positionCoords': [998.4, 334.5], 'bid': 8.58}]",137043.5,1669831865525,steak,Grapes,9.96,8.58,-1.3800000000000008,steak,732.2000000476837,732,732.3999999761581,True,u,138292.80000007153,1249.3000000715256,1669831866774,1249,HRV,HRV_0143,2022-11-30 18:13:41
88,"[{'imgObject': {}, 'id': 'sweetpotato', 'src': '/static/foodstim60/sweetpotato.jpg', 'key': 'u', 'origWidth': 410, 'origHeight': 410, 'width': 410, 'height': 410, 'widthPercent': 0.45, 'rescaleHeight': False, 'trialN': 88, 'loaded': True, 'loadedTime': 2629.3000000715256, 'positionName': 'LEFT', 'positionCoords': [511.6, 335], 'bid': 6.3500000000000005}, {'imgObject': {}, 'id': 'banana', 'src': '/static/foodstim60/banana.jpg', 'key': 'i', 'origWidth': 410, 'origHeight': 410, 'width': 410, 'height': 410, 'widthPercent': 0.45, 'rescaleHeight': False, 'trialN': 88, 'loaded': True, 'loadedTime': 2607.600000023842, 'positionName': 'RIGHT', 'positionCoords': [998.4, 335], 'bid': 7.82}]",138292.89999997616,1669831866774,sweetpotato,banana,6.3500000000000005,7.82,1.4699999999999998,banana,1018.7000000476837,1019,1019.0,True,i,139824.10000002384,1531.2000000476837,1669831868306,1532,HRV,HRV_0143,2022-11-30 18:13:41
89,"[{'imgObject': {}, 'id': 'popsicles', 'src': '/static/foodstim60/popsicles.jpg', 'key': 'u', 'origWidth': 410, 'origHeight': 410, 'width': 410, 'height': 410, 'widthPercent': 0.45, 'rescaleHeight': False, 'trialN': 89, 'loaded': True, 'loadedTime': 2781.399999976158, 'positionName': 'LEFT', 'positionCoords': [511.6, 335], 'bid': 8.48}, {'imgObject': {}, 'id': 'salmon', 'src': '/static/foodstim60/salmon.jpg', 'key': 'i', 'origWidth': 410, 'origHeight': 409, 'width': 410, 'height': 409, 'widthPercent': 0.45, 'rescaleHeight': False, 'trialN': 89, 'loaded': True, 'loadedTime': 2743.600000023842, 'positionName': 'RIGHT', 'positionCoords': [998.4, 335.5], 'bid': 8.5}]",139824.20000004768,1669831868306,popsicles,salmon,8.48,8.5,0.019999999999999574,salmon,976.1999999284744,976,976.5,True,i,141316.39999997616,1492.1999999284744,1669831869798,1492,HRV,HRV_0143,2022-11-30 18:13:41
90,"[{'imgObject': {}, 'id': 'cherry tomato', 'src': '/static/foodstim60/cherry tomato.jpg', 'key': 'u', 'origWidth': 410, 'origHeight': 410, 'width': 410, 'height': 410, 'widthPercent': 0.45, 'rescaleHeight': False, 'trialN': 90, 'loaded': True, 'loadedTime': 2711, 'positionName': 'LEFT', 'positionCoords': [511.6, 335], 'bid': 5.97}, {'imgObject': {}, 'id': 'ice cream sundae 002', 'src': '/static/foodstim60/ice cream sundae 002.jpg', 'key': 'i', 'origWidth': 409, 'origHeight': 409, 'width': 409, 'height': 409, 'widthPercent': 0.45, 'rescaleHeight': False, 'trialN': 90, 'loaded': True, 'loadedTime': 2632.8000000715256, 'positionName': 'RIGHT', 'positionCoords': [998.4, 335.5], 'bid': 6.13}]",146110.70000004768,1669831874592,cherry tomato,ice cream sundae 002,5.97,6.13,0.16000000000000014,cherry tomato,1040.7999999523163,1041,1041.2999999523163,True,u,147652.89999997616,1542.1999999284744,1669831876134,1542,HRV,HRV_0143,2022-11-30 18:13:41
91,"[{'imgObject': {}, 'id': 'Tribe humus pita', 'src': '/static/foodstim60/Tribe humus pita.jpg', 'key': 'u', 'origWidth': 411, 'origHeight': 411, 'width': 411, 'height': 411, 'widthPercent': 0.45, 'rescaleHeight': False, 'trialN': 91, 'loaded': True, 'loadedTime': 2555.100000023842, 'positionName': 'LEFT', 'positionCoords': [510.6, 334.5], 'bid': 9.27}, {'imgObject': {}, 'id': 'steak', 'src': '/static/foodstim60/steak.jpg', 'key': 'i', 'origWidth': 410, 'origHeight': 410, 'width': 410, 'height': 410, 'widthPercent': 0.45, 'rescaleHeight': False, 'trialN': 91, 'loaded': True, 'loadedTime': 2763.8000000715256, 'positionName': 'RIGHT', 'positionCoords': [998.4, 335], 'bid': 9.96}]",147653.0,1669831876134,Tribe humus pita,steak,9.27,9.96,0.6900000000000013,steak,787.2000000476837,788,787.6000000238419,True,i,148951.20000004768,1298.2000000476837,1669831877433,1299,HRV,HRV_0143,2022-11-30 18:13:41
92,"[{'imgObject': {}, 'id': 'cherry tomato', 'src': '/static/foodstim60/cherry tomato.jpg', 'key': 'u', 'origWidth': 410, 'origHeight': 410, 'width': 410, 'height': 410, 'widthPercent': 0.45, 'rescaleHeight': False, 'trialN': 92, 'loaded': True, 'loadedTime': 2710.100000023842, 'positionName': 'LEFT', 'positionCoords': [511.6, 335], 'bid': 5.97}, {'imgObject': {}, 'id': 'raspberries', 'src': '/static/foodstim60/raspberries.jpg', 'key': 'i', 'origWidth': 411, 'origHeight': 411, 'width': 411, 'height': 411, 'widthPercent': 0.45, 'rescaleHeight': False, 'trialN': 92, 'loaded': True, 'loadedTime': 2518.899999976158, 'positionName': 'RIGHT', 'positionCoords': [998.4, 334.5], 'bid': 3.42}]",148951.30000007153,1669831877433,cherry tomato,raspberries,5.97,3.42,-2.55,cherry tomato,1506.2999999523163,1506,1506.6999999284744,True,u,150968.80000007153,2017.5,1669831879450,2017,HRV,HRV_0143,2022-11-30 18:13:41
93,"[{'imgObject': {}, 'id': 'kiwi', 'src': '/static/foodstim60/kiwi.jpg', 'key': 'u', 'origWidth': 410, 'origHeight': 410, 'width': 410, 'height': 410, 'widthPercent': 0.45, 'rescaleHeight': False, 'trialN': 93, 'loaded': True, 'loadedTime': 2684.2000000476837, 'positionName': 'LEFT', 'positionCoords': [511.6, 335], 'bid': 3.09}, {'imgObject': {}, 'id': 'corn cob', 'src': '/static/foodstim60/corn cob.jpg', 'key': 'i', 'origWidth': 411, 'origHeight': 411, 'width': 411, 'height': 411, 'widthPercent': 0.45, 'rescaleHeight': False, 'trialN': 93, 'loaded': True, 'loadedTime': 2631.600000023842, 'positionName': 'RIGHT', 'positionCoords': [998.4, 334.5], 'bid': 2.47}]",150968.80000007153,1669831879450,kiwi,corn cob,3.09,2.47,-0.6199999999999997,corn cob,742.7999999523163,743,743.0999999046326,True,i,152230.89999997616,1262.0999999046326,1669831880712,1262,HRV,HRV_0143,2022-11-30 18:13:41
94,"[{'imgObject': {}, 'id': 'rigatoni', 'src': '/static/foodstim60/rigatoni.jpg', 'key': 'u', 'origWidth': 411, 'origHeight': 411, 'width': 411, 'height': 411, 'widthPercent': 0.45, 'rescaleHeight': False, 'trialN': 94, 'loaded': True, 'loadedTime': 2718.5, 'positionName': 'LEFT', 'positionCoords': [510.6, 334.5], 'bid': 8.92}, {'imgObject': {}, 'id': 'burger', 'src': '/static/foodstim60/burger.jpg', 'key': 'i', 'origWidth': 409, 'origHeight': 409, 'width': 409, 'height': 409, 'widthPercent': 0.45, 'rescaleHeight': False, 'trialN': 94, 'loaded': True, 'loadedTime': 2794.7000000476837, 'positionName': 'RIGHT', 'positionCoords': [998.4, 335.5], 'bid': 9.96}]",152231.0,1669831880712,rigatoni,burger,8.92,9.96,1.040000000000001,burger,1009.0,1010,1009.3000000715256,True,i,153749.80000007153,1518.8000000715256,1669831882231,1519,HRV,HRV_0143,2022-11-30 18:13:41
95,"[{'imgObject': {}, 'id': 'raisin bran w milk', 'src': '/static/foodstim60/raisin bran w milk.jpg', 'key': 'u', 'origWidth': 411, 'origHeight': 411, 'width': 411, 'height': 411, 'widthPercent': 0.45, 'rescaleHeight': False, 'trialN': 95, 'loaded': True, 'loadedTime': 2570.7000000476837, 'positionName': 'LEFT', 'positionCoords': [510.6, 334.5], 'bid': 9.02}, {'imgObject': {}, 'id': 'eggsalad', 'src': '/static/foodstim60/eggsalad.jpg', 'key': 'i', 'origWidth': 410, 'origHeight': 409, 'width': 410, 'height': 409, 'widthPercent': 0.45, 'rescaleHeight': False, 'trialN': 95, 'loaded': True, 'loadedTime': 2620.2000000476837, 'positionName': 'RIGHT', 'positionCoords': [998.4, 335.5], 'bid': 5.69}]",153750.0,1669831882231,raisin bran w milk,eggsalad,9.02,5.69,-3.329999999999999,eggsalad,1409.7000000476837,1410,1410.0,True,i,155666.89999997616,1916.8999999761581,1669831884148,1917,HRV,HRV_0143,2022-11-30 18:13:41
96,"[{'imgObject': {}, 'id': 'blackbeanswithrice', 'src': '/static/foodstim60/blackbeanswithrice.jpg', 'key': 'u', 'origWidth': 410, 'origHeight': 410, 'width': 410, 'height': 410, 'widthPercent': 0.45, 'rescaleHeight': False, 'trialN': 96, 'loaded': True, 'loadedTime': 2792.899999976158, 'positionName': 'LEFT', 'positionCoords': [511.6, 335], 'bid': 5.88}, {'imgObject': {}, 'id': 'omelette', 'src': '/static/foodstim60/omelette.jpg', 'key': 'i', 'origWidth': 410, 'origHeight': 409, 'width': 410, 'height': 409, 'widthPercent': 0.45, 'rescaleHeight': False, 'trialN': 96, 'loaded': True, 'loadedTime': 2626.100000023842, 'positionName': 'RIGHT', 'positionCoords': [998.4, 335.5], 'bid': 9.11}]",155667.0,1669831884149,blackbeanswithrice,omelette,5.88,9.11,3.2299999999999995,omelette,821.3000000715256,821,821.7000000476837,True,i,157001.20000004768,1334.2000000476837,1669831885483,1334,HRV,HRV_0143,2022-11-30 18:13:41
97,"[{'imgObject': {}, 'id': 'raisin bran w milk', 'src': '/static/foodstim60/raisin bran w milk.jpg', 'key': 'u', 'origWidth': 411, 'origHeight': 411, 'width': 411, 'height': 411, 'widthPercent': 0.45, 'rescaleHeight': False, 'trialN': 97, 'loaded': True, 'loadedTime': 2580.600000023842, 'positionName': 'LEFT', 'positionCoords': [510.6, 334.5], 'bid': 9.02}, {'imgObject': {}, 'id': 'omelette', 'src': '/static/foodstim60/omelette.jpg', 'key': 'i', 'origWidth': 410, 'origHeight': 409, 'width': 410, 'height': 409, 'widthPercent': 0.45, 'rescaleHeight': False, 'trialN': 97, 'loaded': True, 'loadedTime': 2625.600000023842, 'positionName': 'RIGHT', 'positionCoords': [998.4, 335.5], 'bid': 9.11}]",157001.20000004768,1669831885483,raisin bran w milk,omelette,9.02,9.11,0.08999999999999986,omelette,902.2999999523163,902,902.7999999523163,True,i,158420.39999997616,1419.1999999284744,1669831886902,1419,HRV,HRV_0143,2022-11-30 18:13:41
98,"[{'imgObject': {}, 'id': 'mac & cheese', 'src': '/static/foodstim60/mac & cheese.jpg', 'key': 'u', 'origWidth': 410, 'origHeight': 410, 'width': 410, 'height': 410, 'widthPercent': 0.45, 'rescaleHeight': False, 'trialN': 98, 'loaded': True, 'loadedTime': 2556.5, 'positionName': 'LEFT', 'positionCoords': [511.6, 335], 'bid': 8.44}, {'imgObject': {}, 'id': 'burrito', 'src': '/static/foodstim60/burrito.jpg', 'key': 'i', 'origWidth': 410, 'origHeight': 410, 'width': 410, 'height': 410, 'widthPercent': 0.45, 'rescaleHeight': False, 'trialN': 98, 'loaded': True, 'loadedTime': 2775.5, 'positionName': 'RIGHT', 'positionCoords': [998.4, 335], 'bid': 8.46}]",158420.5,1669831886902,mac & cheese,burrito,8.44,8.46,0.02000000000000135,mac & cheese,691.0,691,691.3000000715256,True,u,159620.70000004768,1200.2000000476837,1669831888102,1200,HRV,HRV_0143,2022-11-30 18:13:41
99,"[{'imgObject': {}, 'id': 'yogurt no spoon', 'src': '/static/foodstim60/yogurt no spoon.jpg', 'key': 'u', 'origWidth': 411, 'origHeight': 410, 'width': 411, 'height': 410, 'widthPercent': 0.45, 'rescaleHeight': False, 'trialN': 99, 'loaded': True, 'loadedTime': 2780.399999976158, 'positionName': 'LEFT', 'positionCoords': [510.6, 335], 'bid': 5.11}, {'imgObject': {}, 'id': 'orange slices', 'src': '/static/foodstim60/orange slices.jpg', 'key': 'i', 'origWidth': 409, 'origHeight': 410, 'width': 409, 'height': 410, 'widthPercent': 0.45, 'rescaleHeight': False, 'trialN': 99, 'loaded': True, 'loadedTime': 2737.7000000476837, 'positionName': 'RIGHT', 'positionCoords': [998.4, 335], 'bid': 5.39}]",159620.89999997616,1669831888102,yogurt no spoon,orange slices,5.11,5.39,0.27999999999999936,yogurt no spoon,1667.0,1668,1667.5,True,u,161803.70000004768,2182.8000000715256,1669831890285,2183,HRV,HRV_0143,2022-11-30 18:13:41
100,"[{'imgObject': {}, 'id': 'seaweed', 'src': '/static/foodstim60/seaweed.jpg', 'key': 'u', 'origWidth': 410, 'origHeight': 410, 'width': 410, 'height': 410, 'widthPercent': 0.45, 'rescaleHeight': False, 'trialN': 100, 'loaded': True, 'loadedTime': 2630.3000000715256, 'positionName': 'LEFT', 'positionCoords': [511.6, 335], 'bid': 3.02}, {'imgObject': {}, 'id': 'blackbeanswithrice', 'src': '/static/foodstim60/blackbeanswithrice.jpg', 'key': 'i', 'origWidth': 410, 'origHeight': 410, 'width': 410, 'height': 410, 'widthPercent': 0.45, 'rescaleHeight': False, 'trialN': 100, 'loaded': True, 'loadedTime': 2793.8000000715256, 'positionName': 'RIGHT', 'positionCoords': [998.4, 335], 'bid': 5.88}]",161803.89999997616,1669831890285,seaweed,blackbeanswithrice,3.02,5.88,2.86,blackbeanswithrice,795.8000000715256,796,796.0,True,i,163106.60000002384,1302.7000000476837,1669831891588,1303,HRV,HRV_0143,2022-11-30 18:13:41
101,"[{'imgObject': {}, 'id': 'turkeysandwich', 'src': '/static/foodstim60/turkeysandwich.jpg', 'key': 'u', 'origWidth': 409, 'origHeight': 409, 'width': 409, 'height': 409, 'widthPercent': 0.45, 'rescaleHeight': False, 'trialN': 101, 'loaded': True, 'loadedTime': 2549.2000000476837, 'positionName': 'LEFT', 'positionCoords': [512.6, 335.5], 'bid': 9.98}, {'imgObject': {}, 'id': 'burger', 'src': '/static/foodstim60/burger.jpg', 'key': 'i', 'origWidth': 409, 'origHeight': 409, 'width': 409, 'height': 409, 'widthPercent': 0.45, 'rescaleHeight': False, 'trialN': 101, 'loaded': True, 'loadedTime': 2794, 'positionName': 'RIGHT', 'positionCoords': [998.4, 335.5], 'bid': 9.96}]",163106.70000004768,1669831891588,turkeysandwich,burger,9.98,9.96,-0.019999999999999574,burger,1093.0,1094,1093.3999999761581,True,i,164711.89999997616,1605.1999999284744,1669831893193,1605,HRV,HRV_0143,2022-11-30 18:13:41
102,"[{'imgObject': {}, 'id': 'granola w milk', 'src': '/static/foodstim60/granola w milk.jpg', 'key': 'u', 'origWidth': 410, 'origHeight': 410, 'width': 410, 'height': 410, 'widthPercent': 0.45, 'rescaleHeight': False, 'trialN': 102, 'loaded': True, 'loadedTime': 2749.8000000715256, 'positionName': 'LEFT', 'positionCoords': [511.6, 335], 'bid': 8.22}, {'imgObject': {}, 'id': 'kiwi', 'src': '/static/foodstim60/kiwi.jpg', 'key': 'i', 'origWidth': 410, 'origHeight': 410, 'width': 410, 'height': 410, 'widthPercent': 0.45, 'rescaleHeight': False, 'trialN': 102, 'loaded': True, 'loadedTime': 2684.2000000476837, 'positionName': 'RIGHT', 'positionCoords': [998.4, 335], 'bid': 3.09}]",164712.0,1669831893193,granola w milk,kiwi,8.22,3.09,-5.130000000000001,granola w milk,767.7000000476837,768,767.8999999761581,True,u,165989.60000002384,1277.6000000238419,1669831894471,1278,HRV,HRV_0143,2022-11-30 18:13:41
103,"[{'imgObject': {}, 'id': 'veggieswithdip', 'src': '/static/foodstim60/veggieswithdip.jpg', 'key': 'u', 'origWidth': 409, 'origHeight': 409, 'width': 409, 'height': 409, 'widthPercent': 0.45, 'rescaleHeight': False, 'trialN': 103, 'loaded': True, 'loadedTime': 2694.7000000476837, 'positionName': 'LEFT', 'positionCoords': [512.6, 335.5], 'bid': 5.34}, {'imgObject': {}, 'id': 'cherries', 'src': '/static/foodstim60/cherries.jpg', 'key': 'i', 'origWidth': 410, 'origHeight': 411, 'width': 410, 'height': 411, 'widthPercent': 0.45, 'rescaleHeight': False, 'trialN': 103, 'loaded': True, 'loadedTime': 2558.899999976158, 'positionName': 'RIGHT', 'positionCoords': [998.4, 334.5], 'bid': 7.19}]",165989.70000004768,1669831894471,veggieswithdip,cherries,5.34,7.19,1.8500000000000005,veggieswithdip,1178.6999999284744,1179,1179.1000000238419,True,u,167679.0,1689.2999999523163,1669831896161,1690,HRV,HRV_0143,2022-11-30 18:13:41
104,"[{'imgObject': {}, 'id': 'cherry tomato', 'src': '/static/foodstim60/cherry tomato.jpg', 'key': 'u', 'origWidth': 410, 'origHeight': 410, 'width': 410, 'height': 410, 'widthPercent': 0.45, 'rescaleHeight': False, 'trialN': 104, 'loaded': True, 'loadedTime': 2710.899999976158, 'positionName': 'LEFT', 'positionCoords': [511.6, 335], 'bid': 5.97}, {'imgObject': {}, 'id': 'apple slices', 'src': '/static/foodstim60/apple slices.jpg', 'key': 'i', 'origWidth': 409, 'origHeight': 410, 'width': 409, 'height': 410, 'widthPercent': 0.45, 'rescaleHeight': False, 'trialN': 104, 'loaded': True, 'loadedTime': 2621.3000000715256, 'positionName': 'RIGHT', 'positionCoords': [998.4, 335], 'bid': 5.6000000000000005}]",167679.10000002384,1669831896161,cherry tomato,apple slices,5.97,5.6000000000000005,-0.3699999999999992,cherry tomato,1536.5,1536,1536.7999999523163,True,u,169734.70000004768,2055.600000023842,1669831898216,2055,HRV,HRV_0143,2022-11-30 18:13:41
105,"[{'imgObject': {}, 'id': 'eggsalad', 'src': '/static/foodstim60/eggsalad.jpg', 'key': 'u', 'origWidth': 410, 'origHeight': 409, 'width': 410, 'height': 409, 'widthPercent': 0.45, 'rescaleHeight': False, 'trialN': 105, 'loaded': True, 'loadedTime': 2620.2000000476837, 'positionName': 'LEFT', 'positionCoords': [511.6, 335.5], 'bid': 5.69}, {'imgObject': {}, 'id': 'olives', 'src': '/static/foodstim60/olives.jpg', 'key': 'i', 'origWidth': 410, 'origHeight': 410, 'width': 410, 'height': 410, 'widthPercent': 0.45, 'rescaleHeight': False, 'trialN': 105, 'loaded': True, 'loadedTime': 2778.2000000476837, 'positionName': 'RIGHT', 'positionCoords': [998.4, 335], 'bid': 6.26}]",169734.80000007153,1669831898216,eggsalad,olives,5.69,6.26,0.5699999999999994,eggsalad,1665.0999999046326,1666,1665.5,True,u,171919.80000007153,2185.0,1669831900401,2185,HRV,HRV_0143,2022-11-30 18:13:41
106,"[{'imgObject': {}, 'id': 'turkeysandwich', 'src': '/static/foodstim60/turkeysandwich.jpg', 'key': 'u', 'origWidth': 409, 'origHeight': 409, 'width': 409, 'height': 409, 'widthPercent': 0.45, 'rescaleHeight': False, 'trialN': 106, 'loaded': True, 'loadedTime': 2548, 'positionName': 'LEFT', 'positionCoords': [512.6, 335.5], 'bid': 9.98}, {'imgObject': {}, 'id': 'bagel plain', 'src': '/static/foodstim60/bagel plain.jpg', 'key': 'i', 'origWidth': 410, 'origHeight': 410, 'width': 410, 'height': 410, 'widthPercent': 0.45, 'rescaleHeight': False, 'trialN': 106, 'loaded': True, 'loadedTime': 2795.8000000715256, 'positionName': 'RIGHT', 'positionCoords': [998.4, 335], 'bid': 9.01}]",171920.0,1669831900401,turkeysandwich,bagel plain,9.98,9.01,-0.9700000000000006,turkeysandwich,871.7000000476837,873,872.1000000238419,True,u,173293.10000002384,1373.1000000238419,1669831901775,1374,HRV,HRV_0143,2022-11-30 18:13:41
107,"[{'imgObject': {}, 'id': 'eggsalad', 'src': '/static/foodstim60/eggsalad.jpg', 'key': 'u', 'origWidth': 410, 'origHeight': 409, 'width': 410, 'height': 409, 'widthPercent': 0.45, 'rescaleHeight': False, 'trialN': 107, 'loaded': True, 'loadedTime': 2619.5, 'positionName': 'LEFT', 'positionCoords': [511.6, 335.5], 'bid': 5.69}, {'imgObject': {}, 'id': 'avocado', 'src': '/static/foodstim60/avocado.jpg', 'key': 'i', 'origWidth': 409, 'origHeight': 409, 'width': 409, 'height': 409, 'widthPercent': 0.45, 'rescaleHeight': False, 'trialN': 107, 'loaded': True, 'loadedTime': 2750.8000000715256, 'positionName': 'RIGHT', 'positionCoords': [998.4, 335.5], 'bid': 4.55}]",173293.10000002384,1669831901775,eggsalad,avocado,5.69,4.55,-1.1400000000000006,avocado,1058.3999999761581,1058,1058.7000000476837,True,i,174869.20000004768,1576.1000000238419,1669831903351,1576,HRV,HRV_0143,2022-11-30 18:13:41
108,"[{'imgObject': {}, 'id': 'edamame', 'src': '/static/foodstim60/edamame.jpg', 'key': 'u', 'origWidth': 409, 'origHeight': 410, 'width': 409, 'height': 410, 'widthPercent': 0.45, 'rescaleHeight': False, 'trialN': 108, 'loaded': True, 'loadedTime': 2761.899999976158, 'positionName': 'LEFT', 'positionCoords': [512.6, 335], 'bid': 4.93}, {'imgObject': {}, 'id': 'blackbeanswithrice', 'src': '/static/foodstim60/blackbeanswithrice.jpg', 'key': 'i', 'origWidth': 410, 'origHeight': 410, 'width': 410, 'height': 410, 'widthPercent': 0.45, 'rescaleHeight': False, 'trialN': 108, 'loaded': True, 'loadedTime': 2793.7000000476837, 'positionName': 'RIGHT', 'positionCoords': [998.4, 335], 'bid': 5.88}]",174869.20000004768,1669831903351,edamame,blackbeanswithrice,4.93,5.88,0.9500000000000002,blackbeanswithrice,978.3999999761581,978,978.5,True,i,176363.5,1494.2999999523163,1669831904845,1494,HRV,HRV_0143,2022-11-30 18:13:41
