success,trial_type,trial_index,time_elapsed,internal_node_id,Block,TrialNumber,TrialTime,trialTimeDiff,FPS_avg,FPS_med,FPS_mode,TrialDur,winResizeTime,rt,block,button_pressed,missTrial,missTrialMsg,MotCoh,MotDir,ColCoh,Color,ChoiceKey,Choice,Accuracy,RT,nFrames,FPS,PPD,onsetDelay,fullScreenExitTime,canvCenter,TrialType,Score,BlockTrial,stimulus,button_labels,exp,subjectId,date
True,fullscreen,0,2135,0.0-0.0,0.0,1.0,,,,,,,,,,,,,,,,,,,,,,,,,,,,,,,,HRV,HRV_0212,2022-11-30 19:12:57
,wl-check-fps,1,7155,0.0-1.0,0.0,2.0,"[2321.5, 2327, 2372.8, 2376.7, 2393.4, 2410, 2426.6, 2443.4, 2460, 2476.6, 2493.3, 2510, 2526.7, 2543.4, 2560.4, 2577, 2593.6, 2610.4, 2626.9, 2643.6, 2660.4, 2676.9, 2693.5, 2710.2, 2726.9, 2743.6, 2760.3, 2777, 2793.7, 2810.3, 2827.1, 2843.6, 2860.3, 2876.9, 2893.8, 2910.4, 2926.9, 2943.6, 2960.2, 2977, 2993.7, 3010.3, 3026.9, 3043.7, 3060.5, 3077, 3093.8, 3110.5, 3127, 3143.7, 3160.2, 3177, 3193.6, 3210.3, 3227, 3243.6, 3260.3, 3277.1, 3293.8, 3310.6, 3327.2, 3343.7, 3360.4, 3377.3, 3393.4, 3409.9, 3426.7, 3443.4, 3460.2, 3477.3, 3493.7, 3510.5, 3527.2, 3543.7, 3560, 3576.6, 3593.3, 3610, 3626.8, 3643.9, 3660.4, 3677.1, 3693.7, 3710.5, 3727.1, 3743.9, 3760.5, 3777.4, 3794, 3810.5, 3827.4, 3844.3, 3860.8, 3877.6, 3894.2, 3910.6, 3927.4, 3944, 3960.8, 3977.3, 3994, 4010.8, 4027.1, 4043.2, 4060, 4076.8, 4093.5, 4110.1, 4126.6, 4143.3, 4159.9, 4176.7, 4193.6, 4210.1, 4226.6, 4243.3, 4260, 4276.7, 4293.3, 4310.1, 4327.1, 4344, 4360.5, 4377.2, 4394, 4410.3, 4426.7, 4443.3, 4460, 4476.6, 4493.3, 4510.1, 4526.8, 4543.3, 4560, 4576.6, 4593.2, 4610, 4626.6, 4643.3, 4660, 4676.6, 4693.3, 4710.1, 4726.6, 4743.3, 4759.9, 4776.6, 4793.2, 4810, 4826.6, 4843.4, 4860, 4876.8, 4893.5, 4910.2, 4926.8, 4943.7, 4960.2, 4976.9, 4993.5, 5010.3, 5026.8, 5043.4, 5060.1, 5076.8, 5093.8, 5111.1, 5126.9, 5143.3, 5160, 5176.7, 5193.3, 5210, 5226.7, 5243.4, 5260.1, 5276.8, 5293.3, 5310.1, 5326.8, 5343.5, 5360.2, 5376.7, 5393.2, 5409.9, 5426.7, 5443.4, 5460.5, 5477.2, 5493.9, 5510.4, 5527.1, 5543.9, 5560.5, 5577.1, 5593.9, 5610.4, 5627.1, 5643.8, 5660.6, 5677.1, 5693.8, 5710.2, 5726.9, 5743.8, 5760, 5776.7, 5793.3, 5810, 5826.7, 5843.9, 5860.4, 5877.2, 5894.1, 5910.4, 5927.1, 5943.9, 5960.6, 5977.1, 5993.7, 6010.4, 6027.1, 6043.4, 6060.8, 6077.6, 6094, 6110.8, 6127.3, 6143.9, 6160.3, 6176.8, 6193.4, 6210.1, 6226.7, 6243.4, 6260.1, 6277.1, 6293.9, 6310.7, 6327.7, 6344.4, 6360.5, 6376.8, 6393.3, 6409.9, 6426.6, 6443.4, 6460, 6476.8, 6493.4, 6510.6, 6527.2, 6544, 6560.6, 6577.4, 6594, 6610.8, 6627.3, 6644, 6660.5, 6677.1, 6693.8, 6710.6, 6727.1, 6743.9, 6760.5, 6777.1, 6794, 6810.6, 6827.2, 6843.9, 6861, 6877.2, 6894, 6910.5, 6927.3, 6943.7, 6960.5, 6977.1, 6994, 7010.5, 7027.2, 7043.8, 7060.6, 7077.1, 7093.9, 7110.6, 7127.2, 7143.9, 7160.5, 7177.2, 7194, 7210.7, 7227.5, 7243.9, 7260.5, 7277.3, 7294.7, 7310.9]","[4.7, 5.5, 45.8, 3.9, 16.7, 16.6, 16.6, 16.8, 16.6, 16.6, 16.7, 16.7, 16.7, 16.7, 17, 16.6, 16.6, 16.8, 16.5, 16.7, 16.8, 16.5, 16.6, 16.7, 16.7, 16.7, 16.7, 16.7, 16.7, 16.6, 16.8, 16.5, 16.7, 16.6, 16.9, 16.6, 16.5, 16.7, 16.6, 16.8, 16.7, 16.6, 16.6, 16.8, 16.8, 16.5, 16.8, 16.7, 16.5, 16.7, 16.5, 16.8, 16.6, 16.7, 16.7, 16.6, 16.7, 16.8, 16.7, 16.8, 16.6, 16.5, 16.7, 16.9, 16.1, 16.5, 16.8, 16.7, 16.8, 17.1, 16.4, 16.8, 16.7, 16.5, 16.3, 16.6, 16.7, 16.7, 16.8, 17.1, 16.5, 16.7, 16.6, 16.8, 16.6, 16.8, 16.6, 16.9, 16.6, 16.5, 16.9, 16.9, 16.5, 16.8, 16.6, 16.4, 16.8, 16.6, 16.8, 16.5, 16.7, 16.8, 16.3, 16.1, 16.8, 16.8, 16.7, 16.6, 16.5, 16.7, 16.6, 16.8, 16.9, 16.5, 16.5, 16.7, 16.7, 16.7, 16.6, 16.8, 17, 16.9, 16.5, 16.7, 16.8, 16.3, 16.4, 16.6, 16.7, 16.6, 16.7, 16.8, 16.7, 16.5, 16.7, 16.6, 16.6, 16.8, 16.6, 16.7, 16.7, 16.6, 16.7, 16.8, 16.5, 16.7, 16.6, 16.7, 16.6, 16.8, 16.6, 16.8, 16.6, 16.8, 16.7, 16.7, 16.6, 16.9, 16.5, 16.7, 16.6, 16.8, 16.5, 16.6, 16.7, 16.7, 17, 17.3, 15.8, 16.4, 16.7, 16.7, 16.6, 16.7, 16.7, 16.7, 16.7, 16.7, 16.5, 16.8, 16.7, 16.7, 16.7, 16.5, 16.5, 16.7, 16.8, 16.7, 17.1, 16.7, 16.7, 16.5, 16.7, 16.8, 16.6, 16.6, 16.8, 16.5, 16.7, 16.7, 16.8, 16.5, 16.7, 16.4, 16.7, 16.9, 16.2, 16.7, 16.6, 16.7, 16.7, 17.2, 16.5, 16.8, 16.9, 16.3, 16.7, 16.8, 16.7, 16.5, 16.6, 16.7, 16.7, 16.3, 17.4, 16.8, 16.4, 16.8, 16.5, 16.6, 16.4, 16.5, 16.6, 16.7, 16.6, 16.7, 16.7, 17, 16.8, 16.8, 17, 16.7, 16.1, 16.3, 16.5, 16.6, 16.7, 16.8, 16.6, 16.8, 16.6, 17.2, 16.6, 16.8, 16.6, 16.8, 16.6, 16.8, 16.5, 16.7, 16.5, 16.6, 16.7, 16.8, 16.5, 16.8, 16.6, 16.6, 16.9, 16.6, 16.6, 16.7, 17.1, 16.2, 16.8, 16.5, 16.8, 16.4, 16.8, 16.6, 16.9, 16.5, 16.7, 16.6, 16.8, 16.5, 16.8, 16.7, 16.6, 16.7, 16.6, 16.7, 16.8, 16.7, 16.8, 16.4, 16.6, 16.8, 17.4, 16.2]",60.0,60.0,60.0,5010.8,[],,,,,,,,,,,,,,,,,,,,,,,,,HRV,HRV_0212,2022-11-30 19:12:57
,wl-html-keyboard-response,2,36982,0.0-2.0-0.0,0.0,2.0,,,,,,,,27809.0,0.0,0,True,undefinedblurEvent ,,,,,,,,,,,,,,,,,,,,HRV,HRV_0212,2022-11-30 19:12:57
,wl-rdm,3,44052,0.0-3.0-0.0,0.0,3.0,,,,,,,[],,,,False,,0.0,0.0,87.9,0.0,u,0.0,True,1485.300000000745,90.0,60.0,40.0,3000.0,[],"[960, 540]",ColorTask_Demo,,,,,HRV,HRV_0212,2022-11-30 19:12:57
,wl-rdm,4,48869,0.0-3.0-1.0,0.0,4.0,,,,,,,[],,,,False,,0.0,0.0,87.9,1.0,i,1.0,True,763.0000000018626,46.0,60.0,40.0,2000.0,[],"[960, 540]",ColorTask_Demo,,,,,HRV,HRV_0212,2022-11-30 19:12:57
,wl-html-keyboard-response,5,57318,0.0-3.0-2.0,0.0,5.0,,,,,,,,6441.60000000149,0.0,1,,,,,,,,,,,,,,,,,,,,,,HRV,HRV_0212,2022-11-30 19:12:57
,wl-html-keyboard-response,6,67070,0.0-4.0-0.0,0.0,6.0,,,,,,,,7746.199999999255,0.0,0,,,,,,,,,,,,,,,,,,,,,,HRV,HRV_0212,2022-11-30 19:12:57
,wl-html-keyboard-response,7,729751,0.0-5.0-0.0,0.0,6.0,,,,,,,,660675.0999999996,0.0,0,True,undefinedblurEvent ,,,,,,,,,,,,,,,,,,,,HRV,HRV_0212,2022-11-30 19:12:57
,wl-rdm,8,732116,0.0-6.0-0.0,0.0,7.0,,,,,,,[],,,,False,,,,62.5,1.0,u,0.0,False,972.6000000014901,59.0,60.0,40.0,327.10081502863284,[],"[960, 540]",ColorTask,-1.0,1.0,,,HRV,HRV_0212,2022-11-30 19:12:57
,wl-rdm,9,734167,0.0-6.1-0.1,0.0,8.0,,,,,,,[],,,,False,,,,62.5,1.0,i,1.0,True,755.5,46.0,60.0,40.0,231.0109529807183,[],"[960, 540]",ColorTask,0.0,2.0,,,HRV,HRV_0212,2022-11-30 19:12:57
,wl-rdm,10,736350,0.0-6.2-0.2,0.0,9.0,,,,,,,[],,,,False,,,,73.6,0.0,u,0.0,True,773.0999999996275,47.0,60.0,40.0,328.5366286308275,[],"[960, 540]",ColorTask,1.0,3.0,,,HRV,HRV_0212,2022-11-30 19:12:57
,wl-rdm,11,738583,0.0-6.3-0.3,0.0,10.0,,,,,,,[],,,,False,,,,53.2,1.0,i,1.0,True,929.8000000026077,56.0,60.0,40.0,225.2310914701386,[],"[960, 540]",ColorTask,2.0,4.0,,,HRV,HRV_0212,2022-11-30 19:12:57
,wl-rdm,12,740550,0.0-6.4-0.4,0.0,11.0,,,,,,,[],,,,False,,,,56.4,0.0,i,1.0,False,622.9000000022352,38.0,60.0,40.0,259.98989190254105,[],"[960, 540]",ColorTask,1.0,5.0,,,HRV,HRV_0212,2022-11-30 19:12:57
,wl-rdm,13,742432,0.0-6.5-0.5,0.0,12.0,,,,,,,[],,,,False,,,,87.9,1.0,u,0.0,False,568.3000000007451,35.0,60.0,40.0,238.87756801111428,[],"[960, 540]",ColorTask,0.0,6.0,,,HRV,HRV_0212,2022-11-30 19:12:57
,wl-rdm,14,744332,0.0-6.6-0.6,0.0,13.0,,,,,,,[],,,,False,,,,56.4,1.0,i,1.0,True,547.5,33.0,60.0,40.0,284.98746005792236,[],"[960, 540]",ColorTask,1.0,7.0,,,HRV,HRV_0212,2022-11-30 19:12:57
,wl-rdm,15,746466,0.0-6.7-0.7,0.0,14.0,,,,,,,[],,,,False,,,,73.6,0.0,u,0.0,True,792.7999999988824,48.0,60.0,40.0,263.73819923243775,[],"[960, 540]",ColorTask,2.0,8.0,,,HRV,HRV_0212,2022-11-30 19:12:57
,wl-rdm,16,748916,0.0-6.8-0.8,0.0,15.0,,,,,,,[],,,,False,,,,53.2,1.0,i,1.0,True,998.4000000003725,60.0,60.0,40.0,390.049379698032,[],"[960, 540]",ColorTask,3.0,9.0,,,HRV,HRV_0212,2022-11-30 19:12:57
,wl-rdm,17,751466,0.0-6.9-0.9,0.0,16.0,,,,,,,[],,,,False,,,,62.5,0.0,u,0.0,True,1184.0,72.0,60.0,40.0,270.6040710292099,[],"[960, 540]",ColorTask,4.0,10.0,,,HRV,HRV_0212,2022-11-30 19:12:57
,wl-rdm,18,753649,0.0-6.10-0.10,0.0,17.0,,,,,,,[],,,,False,,,,53.2,0.0,i,1.0,False,775.0,47.0,60.0,40.0,343.5960414162713,[],"[960, 540]",ColorTask,3.0,11.0,,,HRV,HRV_0212,2022-11-30 19:12:57
,wl-rdm,19,755965,0.0-6.11-0.11,0.0,18.0,,,,,,,[],,,,False,,,,53.2,1.0,u,0.0,False,896.0,54.0,60.0,40.0,360.49969653387495,[],"[960, 540]",ColorTask,2.0,12.0,,,HRV,HRV_0212,2022-11-30 19:12:57
,wl-rdm,20,758066,0.0-6.12-0.12,0.0,19.0,,,,,,,[],,,,False,,,,73.6,1.0,i,1.0,True,749.8000000026077,45.0,60.0,40.0,280.29976758802786,[],"[960, 540]",ColorTask,3.0,13.0,,,HRV,HRV_0212,2022-11-30 19:12:57
,wl-rdm,21,760015,0.0-6.13-0.13,0.0,20.0,,,,,,,[],,,,False,,,,53.2,1.0,i,1.0,True,667.6999999992549,41.0,60.0,40.0,201.725956411549,[],"[960, 540]",ColorTask,4.0,14.0,,,HRV,HRV_0212,2022-11-30 19:12:57
,wl-rdm,22,762116,0.0-6.14-0.14,0.0,21.0,,,,,,,[],,,,False,,,,62.5,0.0,u,0.0,True,664.9000000003725,40.0,60.0,40.0,375.1979842966799,[],"[960, 540]",ColorTask,5.0,15.0,,,HRV,HRV_0212,2022-11-30 19:12:57
,wl-rdm,23,764450,0.0-6.15-0.15,0.0,22.0,,,,,,,[],,,,False,,,,53.2,0.0,u,0.0,True,868.1999999992549,53.0,60.0,40.0,386.4230353689483,[],"[960, 540]",ColorTask,6.0,16.0,,,HRV,HRV_0212,2022-11-30 19:12:57
,wl-rdm,24,766566,0.0-6.16-0.16,0.0,23.0,,,,,,,[],,,,False,,,,50.0,0.0,u,0.0,True,804.2000000011176,49.0,60.0,40.0,243.658315566327,[],"[960, 540]",ColorTask,7.0,17.0,,,HRV,HRV_0212,2022-11-30 19:12:57
,wl-rdm,25,768599,0.0-6.17-0.17,0.0,24.0,,,,,,,[],,,,False,,,,53.2,0.0,i,1.0,False,720.5000000018626,44.0,60.0,40.0,229.6512134005802,[],"[960, 540]",ColorTask,6.0,18.0,,,HRV,HRV_0212,2022-11-30 19:12:57
,wl-rdm,26,770933,0.0-6.18-0.18,0.0,25.0,,,,,,,[],,,,False,,,,73.6,0.0,u,0.0,True,1023.0,62.0,60.0,40.0,240.21696677460562,[],"[960, 540]",ColorTask,7.0,19.0,,,HRV,HRV_0212,2022-11-30 19:12:57
,wl-rdm,27,772866,0.0-6.19-0.19,0.0,26.0,,,,,,,[],,,,False,,,,87.9,1.0,i,1.0,True,657.7999999988824,40.0,60.0,40.0,210.0144399225081,[],"[960, 540]",ColorTask,8.0,20.0,,,HRV,HRV_0212,2022-11-30 19:12:57
,wl-rdm,28,775133,0.0-6.20-0.20,0.0,27.0,,,,,,,[],,,,False,,,,62.5,0.0,u,0.0,True,946.9000000003725,57.0,60.0,40.0,253.13350045337936,[],"[960, 540]",ColorTask,9.0,21.0,,,HRV,HRV_0212,2022-11-30 19:12:57
,wl-rdm,29,777183,0.0-6.21-0.21,0.0,28.0,,,,,,,[],,,,False,,,,87.9,1.0,i,1.0,True,737.6999999992549,45.0,60.0,40.0,220.34302108718992,[],"[960, 540]",ColorTask,10.0,22.0,,,HRV,HRV_0212,2022-11-30 19:12:57
,wl-rdm,30,779250,0.0-6.22-0.22,0.0,29.0,,,,,,,[],,,,False,,,,62.5,1.0,i,1.0,True,608.7000000011176,37.0,60.0,40.0,392.6200954249115,[],"[960, 540]",ColorTask,11.0,23.0,,,HRV,HRV_0212,2022-11-30 19:12:57
,wl-rdm,31,781549,0.0-6.23-0.23,0.0,30.0,,,,,,,[],,,,False,,,,56.4,0.0,u,0.0,True,963.9000000003725,58.0,60.0,40.0,263.81875321988605,[],"[960, 540]",ColorTask,12.0,24.0,,,HRV,HRV_0212,2022-11-30 19:12:57
,wl-rdm,32,783650,0.0-6.24-0.24,0.0,31.0,,,,,,,[],,,,False,,,,53.2,1.0,u,0.0,False,725.7999999988824,44.0,60.0,40.0,310.6793003645316,[],"[960, 540]",ColorTask,11.0,25.0,,,HRV,HRV_0212,2022-11-30 19:12:57
,wl-rdm,33,785883,0.0-6.25-0.25,0.0,32.0,,,,,,,[],,,,False,,,,56.4,0.0,i,1.0,False,941.5,57.0,60.0,40.0,207.78850956913737,[],"[960, 540]",ColorTask,10.0,26.0,,,HRV,HRV_0212,2022-11-30 19:12:57
,wl-rdm,34,787950,0.0-6.26-0.26,0.0,33.0,,,,,,,[],,,,False,,,,87.9,1.0,i,1.0,True,730.2999999988824,44.0,60.0,40.0,262.9220623854997,[],"[960, 540]",ColorTask,11.0,27.0,,,HRV,HRV_0212,2022-11-30 19:12:57
,wl-rdm,35,790233,0.0-6.27-0.27,0.0,34.0,,,,,,,[],,,,False,,,,62.5,0.0,u,0.0,True,935.3999999985099,57.0,60.0,40.0,280.62651189836834,[],"[960, 540]",ColorTask,12.0,28.0,,,HRV,HRV_0212,2022-11-30 19:12:57
,wl-rdm,36,792733,0.0-6.28-0.28,0.0,35.0,,,,,,,[],,,,False,,,,56.4,1.0,u,0.0,False,1079.5999999996275,65.0,60.0,40.0,357.4298305647583,[],"[960, 540]",ColorTask,11.0,29.0,,,HRV,HRV_0212,2022-11-30 19:12:57
,wl-rdm,37,795050,0.0-6.29-0.29,0.0,36.0,,,,,,,[],,,,False,,,,53.2,1.0,i,1.0,True,1049.7999999988824,63.0,60.0,40.0,208.30651860734065,[],"[960, 540]",ColorTask,12.0,30.0,,,HRV,HRV_0212,2022-11-30 19:12:57
,wl-rdm,38,797152,0.0-6.30-0.30,0.0,37.0,,,,,,,[],,,,False,,,,56.4,0.0,i,1.0,False,738.4000000003725,45.0,60.0,40.0,269.36148286401306,[],"[960, 540]",ColorTask,11.0,31.0,,,HRV,HRV_0212,2022-11-30 19:12:57
,wl-rdm,39,799500,0.0-6.31-0.31,0.0,38.0,,,,,,,[],,,,False,,,,53.2,0.0,u,0.0,True,1064.4000000003725,64.0,60.0,40.0,217.42692466446778,[],"[960, 540]",ColorTask,12.0,32.0,,,HRV,HRV_0212,2022-11-30 19:12:57
,wl-rdm,40,801583,0.0-6.32-0.32,0.0,39.0,,,,,,,[],,,,False,,,,50.0,0.0,i,1.0,False,678.2999999988824,41.0,60.0,40.0,324.9409117245207,[],"[960, 540]",ColorTask,11.0,33.0,,,HRV,HRV_0212,2022-11-30 19:12:57
,wl-rdm,41,803750,0.0-6.33-0.33,0.0,40.0,,,,,,,[],,,,False,,,,56.4,0.0,i,1.0,False,804.7999999988824,49.0,60.0,40.0,286.14212857285304,[],"[960, 540]",ColorTask,10.0,34.0,,,HRV,HRV_0212,2022-11-30 19:12:57
,wl-rdm,42,806184,0.0-6.34-0.34,0.0,41.0,,,,,,,[],,,,False,,,,56.4,1.0,i,1.0,True,1078.3999999985099,65.0,60.0,40.0,272.5042674626867,[],"[960, 540]",ColorTask,11.0,35.0,,,HRV,HRV_0212,2022-11-30 19:12:57
,wl-rdm,43,808284,0.0-6.35-0.35,0.0,42.0,,,,,,,[],,,,False,,,,73.6,0.0,u,0.0,True,781.0999999996275,47.0,60.0,40.0,262.57794978800575,[],"[960, 540]",ColorTask,12.0,36.0,,,HRV,HRV_0212,2022-11-30 19:12:57
,wl-rdm,44,810167,0.0-6.36-0.36,0.0,43.0,,,,,,,[],,,,False,,,,73.6,1.0,i,1.0,True,586.3000000007451,36.0,60.0,40.0,221.0262455599599,[],"[960, 540]",ColorTask,13.0,37.0,,,HRV,HRV_0212,2022-11-30 19:12:57
,wl-rdm,45,812367,0.0-6.37-0.37,0.0,44.0,,,,,,,[],,,,False,,,,50.0,1.0,i,1.0,True,860.9000000003725,52.0,60.0,40.0,281.5532306469949,[],"[960, 540]",ColorTask,14.0,38.0,,,HRV,HRV_0212,2022-11-30 19:12:57
,wl-rdm,46,814700,0.0-6.38-0.38,0.0,45.0,,,,,,,[],,,,False,,,,73.6,0.0,u,0.0,True,957.4000000003725,58.0,60.0,40.0,294.87727960648084,[],"[960, 540]",ColorTask,15.0,39.0,,,HRV,HRV_0212,2022-11-30 19:12:57
,wl-rdm,47,816834,0.0-6.39-0.39,0.0,46.0,,,,,,,[],,,,False,,,,87.9,0.0,u,0.0,True,852.3999999985099,52.0,60.0,40.0,200.56899105701032,[],"[960, 540]",ColorTask,16.0,40.0,,,HRV,HRV_0212,2022-11-30 19:12:57
,wl-rdm,48,818966,0.0-6.40-0.40,0.0,47.0,,,,,,,[],,,,False,,,,50.0,1.0,i,1.0,True,653.4000000003725,40.0,60.0,40.0,383.8373930218347,[],"[960, 540]",ColorTask,17.0,41.0,,,HRV,HRV_0212,2022-11-30 19:12:57
,wl-rdm,49,820967,0.0-6.41-0.41,0.0,48.0,,,,,,,[],,,,False,,,,62.5,1.0,i,1.0,True,703.6000000014901,43.0,60.0,40.0,217.021047908146,[],"[960, 540]",ColorTask,18.0,42.0,,,HRV,HRV_0212,2022-11-30 19:12:57
,wl-rdm,50,823250,0.0-6.42-0.42,0.0,49.0,,,,,,,[],,,,False,,,,62.5,0.0,i,1.0,False,852.1999999992549,52.0,60.0,40.0,335.7904042039786,[],"[960, 540]",ColorTask,17.0,43.0,,,HRV,HRV_0212,2022-11-30 19:12:57
,wl-rdm,51,825617,0.0-6.43-0.43,0.0,50.0,,,,,,,[],,,,False,,,,87.9,0.0,u,0.0,True,1094.0999999996275,66.0,60.0,40.0,207.85024348544107,[],"[960, 540]",ColorTask,18.0,44.0,,,HRV,HRV_0212,2022-11-30 19:12:57
,wl-rdm,52,827717,0.0-6.44-0.44,0.0,51.0,,,,,,,[],,,,False,,,,53.2,0.0,i,1.0,False,637.6999999992549,39.0,60.0,40.0,391.4914252812482,[],"[960, 540]",ColorTask,17.0,45.0,,,HRV,HRV_0212,2022-11-30 19:12:57
,wl-rdm,53,829817,0.0-6.45-0.45,0.0,52.0,,,,,,,[],,,,False,,,,50.0,0.0,i,1.0,False,677.2999999988824,41.0,60.0,40.0,339.98299389872534,[],"[960, 540]",ColorTask,16.0,46.0,,,HRV,HRV_0212,2022-11-30 19:12:57
,wl-rdm,54,831984,0.0-6.46-0.46,0.0,53.0,,,,,,,[],,,,False,,,,73.6,1.0,i,1.0,True,761.7999999988824,46.0,60.0,40.0,321.0745638825563,[],"[960, 540]",ColorTask,17.0,47.0,,,HRV,HRV_0212,2022-11-30 19:12:57
,wl-rdm,55,834200,0.0-6.47-0.47,0.0,54.0,,,,,,,[],,,,False,,,,62.5,1.0,u,0.0,False,927.3999999985099,56.0,60.0,40.0,215.25568557484036,[],"[960, 540]",ColorTask,16.0,48.0,,,HRV,HRV_0212,2022-11-30 19:12:57
,wl-rdm,56,836250,0.0-6.48-0.48,0.0,55.0,,,,,,,[],,,,False,,,,87.9,1.0,i,1.0,True,635.8000000007451,39.0,60.0,40.0,320.3879997818718,[],"[960, 540]",ColorTask,17.0,49.0,,,HRV,HRV_0212,2022-11-30 19:12:57
,wl-rdm,57,838451,0.0-6.49-0.49,0.0,56.0,,,,,,,[],,,,False,,,,62.5,0.0,u,0.0,True,848.5999999996275,51.0,60.0,40.0,296.1375823981437,[],"[960, 540]",ColorTask,18.0,50.0,,,HRV,HRV_0212,2022-11-30 19:12:57
,wl-rdm,58,840451,0.0-6.50-0.50,0.0,57.0,,,,,,,[],,,,False,,,,62.5,1.0,i,1.0,True,714.7999999988824,43.0,60.0,40.0,230.18571645314367,[],"[960, 540]",ColorTask,19.0,51.0,,,HRV,HRV_0212,2022-11-30 19:12:57
,wl-rdm,59,842584,0.0-6.51-0.51,0.0,58.0,,,,,,,[],,,,False,,,,87.9,0.0,u,0.0,True,820.0999999996275,50.0,60.0,40.0,218.73014722177618,[],"[960, 540]",ColorTask,20.0,52.0,,,HRV,HRV_0212,2022-11-30 19:12:57
,wl-rdm,60,844868,0.0-6.52-0.52,0.0,59.0,,,,,,,[],,,,False,,,,53.2,0.0,u,0.0,True,998.2999999988824,60.0,60.0,40.0,223.59191345591518,[],"[960, 540]",ColorTask,21.0,53.0,,,HRV,HRV_0212,2022-11-30 19:12:57
,wl-rdm,61,847584,0.0-6.53-0.53,0.0,60.0,,,,,,,[],,,,False,,,,50.0,0.0,u,0.0,True,1337.5,81.0,60.0,40.0,297.76947348929326,[],"[960, 540]",ColorTask,22.0,54.0,,,HRV,HRV_0212,2022-11-30 19:12:57
,wl-rdm,62,849734,0.0-6.54-0.54,0.0,61.0,,,,,,,[],,,,False,,,,53.2,0.0,u,0.0,True,862.1999999992549,52.0,60.0,40.0,230.15798578516095,[],"[960, 540]",ColorTask,23.0,55.0,,,HRV,HRV_0212,2022-11-30 19:12:57
,wl-rdm,63,852151,0.0-6.55-0.55,0.0,62.0,,,,,,,[],,,,False,,,,50.0,1.0,i,1.0,True,1102.699999999255,67.0,60.0,40.0,234.26710869243894,[],"[960, 540]",ColorTask,24.0,56.0,,,HRV,HRV_0212,2022-11-30 19:12:57
,wl-rdm,64,854384,0.0-6.56-0.56,0.0,63.0,,,,,,,[],,,,False,,,,87.9,1.0,i,1.0,True,835.1999999992549,51.0,60.0,40.0,321.8910046837167,[],"[960, 540]",ColorTask,25.0,57.0,,,HRV,HRV_0212,2022-11-30 19:12:57
,wl-rdm,65,856901,0.0-6.57-0.57,0.0,64.0,,,,,,,[],,,,False,,,,50.0,1.0,i,1.0,True,1181.3999999985099,71.0,60.0,40.0,256.7356600094385,[],"[960, 540]",ColorTask,26.0,58.0,,,HRV,HRV_0212,2022-11-30 19:12:57
,wl-rdm,66,859151,0.0-6.58-0.58,0.0,65.0,,,,,,,[],,,,False,,,,87.9,1.0,i,1.0,True,887.6999999992549,54.0,60.0,40.0,300.37660092297017,[],"[960, 540]",ColorTask,27.0,59.0,,,HRV,HRV_0212,2022-11-30 19:12:57
,wl-rdm,67,861468,0.0-6.59-0.59,0.0,66.0,,,,,,,[],,,,False,,,,56.4,0.0,u,0.0,True,1024.2000000029802,62.0,60.0,40.0,207.63460149640935,[],"[960, 540]",ColorTask,28.0,60.0,,,HRV,HRV_0212,2022-11-30 19:12:57
,wl-rdm,68,864185,0.0-6.60-0.60,0.0,67.0,,,,,,,[],,,,False,,,,50.0,0.0,i,1.0,False,1260.0,76.0,60.0,40.0,388.1896438658209,[],"[960, 540]",ColorTask,27.0,61.0,,,HRV,HRV_0212,2022-11-30 19:12:57
,wl-rdm,69,866485,0.0-6.61-0.61,0.0,68.0,,,,,,,[],,,,False,,,,56.4,1.0,i,1.0,True,1042.8999999985099,63.0,60.0,40.0,201.2548197613831,[],"[960, 540]",ColorTask,28.0,62.0,,,HRV,HRV_0212,2022-11-30 19:12:57
,wl-rdm,70,868702,0.0-6.62-0.62,0.0,69.0,,,,,,,[],,,,False,,,,73.6,1.0,i,1.0,True,872.6000000014901,53.0,60.0,40.0,258.8381964136947,[],"[960, 540]",ColorTask,29.0,63.0,,,HRV,HRV_0212,2022-11-30 19:12:57
,wl-rdm,71,870668,0.0-6.63-0.63,0.0,70.0,,,,,,,[],,,,False,,,,73.6,1.0,i,1.0,True,639.5,39.0,60.0,40.0,253.9754196134054,[],"[960, 540]",ColorTask,30.0,64.0,,,HRV,HRV_0212,2022-11-30 19:12:57
,wl-rdm,72,872702,0.0-6.64-0.64,0.0,71.0,,,,,,,[],,,,False,,,,73.6,1.0,i,1.0,True,647.3999999985099,39.0,60.0,40.0,300.6883998909292,[],"[960, 540]",ColorTask,31.0,65.0,,,HRV,HRV_0212,2022-11-30 19:12:57
,wl-rdm,73,874802,0.0-6.65-0.65,0.0,72.0,,,,,,,[],,,,False,,,,62.5,1.0,i,1.0,True,702.4000000003725,43.0,60.0,40.0,326.19627320278846,[],"[960, 540]",ColorTask,32.0,66.0,,,HRV,HRV_0212,2022-11-30 19:12:57
,wl-rdm,74,876885,0.0-6.66-0.66,0.0,73.0,,,,,,,[],,,,False,,,,50.0,1.0,i,1.0,True,705.6999999992549,43.0,60.0,40.0,305.7694887710862,[],"[960, 540]",ColorTask,33.0,67.0,,,HRV,HRV_0212,2022-11-30 19:12:57
,wl-rdm,75,878952,0.0-6.67-0.67,0.0,74.0,,,,,,,[],,,,False,,,,56.4,1.0,i,1.0,True,778.7999999988824,47.0,60.0,40.0,214.53622086047983,[],"[960, 540]",ColorTask,34.0,68.0,,,HRV,HRV_0212,2022-11-30 19:12:57
,wl-rdm,76,880919,0.0-6.68-0.68,0.0,75.0,,,,,,,[],,,,False,,,,87.9,1.0,i,1.0,True,637.3999999985099,39.0,60.0,40.0,258.0251889301771,[],"[960, 540]",ColorTask,35.0,69.0,,,HRV,HRV_0212,2022-11-30 19:12:57
,wl-rdm,77,882952,0.0-6.69-0.69,0.0,76.0,,,,,,,[],,,,False,,,,87.9,0.0,u,0.0,True,743.6000000014901,45.0,60.0,40.0,224.76029066594134,[],"[960, 540]",ColorTask,36.0,70.0,,,HRV,HRV_0212,2022-11-30 19:12:57
,wl-rdm,78,885302,0.0-6.70-0.70,0.0,77.0,,,,,,,[],,,,False,,,,62.5,0.0,u,0.0,True,1047.0,63.0,60.0,40.0,220.77737335321365,[],"[960, 540]",ColorTask,37.0,71.0,,,HRV,HRV_0212,2022-11-30 19:12:57
,wl-rdm,79,887452,0.0-6.71-0.71,0.0,78.0,,,,,,,[],,,,False,,,,56.4,0.0,u,0.0,True,815.5,49.0,60.0,40.0,263.4056649729454,[],"[960, 540]",ColorTask,38.0,72.0,,,HRV,HRV_0212,2022-11-30 19:12:57
,wl-rdm,80,889552,0.0-6.72-0.72,0.0,79.0,,,,,,,[],,,,False,,,,73.6,1.0,i,1.0,True,677.5999999996275,41.0,60.0,40.0,349.34343889712846,[],"[960, 540]",ColorTask,39.0,73.0,,,HRV,HRV_0212,2022-11-30 19:12:57
,wl-rdm,81,891802,0.0-6.73-0.73,0.0,80.0,,,,,,,[],,,,False,,,,87.9,0.0,u,0.0,True,843.2999999988824,51.0,60.0,40.0,322.99148049695873,[],"[960, 540]",ColorTask,40.0,74.0,,,HRV,HRV_0212,2022-11-30 19:12:57
,wl-rdm,82,893852,0.0-6.74-0.74,0.0,81.0,,,,,,,[],,,,False,,,,56.4,1.0,u,0.0,False,722.8999999985099,44.0,60.0,40.0,261.33056860698645,[],"[960, 540]",ColorTask,39.0,75.0,,,HRV,HRV_0212,2022-11-30 19:12:57
,wl-rdm,83,896203,0.0-6.75-0.75,0.0,82.0,,,,,,,[],,,,False,,,,53.2,0.0,u,0.0,True,926.1000000014901,56.0,60.0,40.0,348.94592218040884,[],"[960, 540]",ColorTask,40.0,76.0,,,HRV,HRV_0212,2022-11-30 19:12:57
,wl-rdm,84,898402,0.0-6.76-0.76,0.0,83.0,,,,,,,[],,,,False,,,,62.5,1.0,i,1.0,True,859.4999999981374,52.0,60.0,40.0,255.2655980427338,[],"[960, 540]",ColorTask,41.0,77.0,,,HRV,HRV_0212,2022-11-30 19:12:57
,wl-rdm,85,900519,0.0-6.77-0.77,0.0,84.0,,,,,,,[],,,,False,,,,73.6,0.0,u,0.0,True,779.3000000007451,47.0,60.0,40.0,260.34299479158085,[],"[960, 540]",ColorTask,42.0,78.0,,,HRV,HRV_0212,2022-11-30 19:12:57
,wl-rdm,86,902536,0.0-6.78-0.78,0.0,85.0,,,,,,,[],,,,False,,,,56.4,1.0,u,0.0,False,638.2999999988824,39.0,60.0,40.0,286.9716254171425,[],"[960, 540]",ColorTask,41.0,79.0,,,HRV,HRV_0212,2022-11-30 19:12:57
,wl-rdm,87,904619,0.0-6.79-0.79,0.0,86.0,,,,,,,[],,,,False,,,,56.4,0.0,u,0.0,True,785.6999999992549,48.0,60.0,40.0,209.27265658331683,[],"[960, 540]",ColorTask,42.0,80.0,,,HRV,HRV_0212,2022-11-30 19:12:57
,wl-rdm,88,906686,0.0-6.80-0.80,0.0,87.0,,,,,,,[],,,,False,,,,62.5,0.0,u,0.0,True,779.0999999996275,47.0,60.0,40.0,231.29158607494904,[],"[960, 540]",ColorTask,43.0,81.0,,,HRV,HRV_0212,2022-11-30 19:12:57
,wl-rdm,89,908585,0.0-6.81-0.81,0.0,88.0,,,,,,,[],,,,False,,,,87.9,0.0,u,0.0,True,553.0,34.0,60.0,40.0,251.92728672482144,[],"[960, 540]",ColorTask,44.0,82.0,,,HRV,HRV_0212,2022-11-30 19:12:57
,wl-rdm,90,911053,0.0-6.82-0.82,0.0,89.0,,,,,,,[],,,,False,,,,50.0,0.0,u,0.0,True,1039.0999999996275,63.0,60.0,40.0,351.3333474265391,[],"[960, 540]",ColorTask,45.0,83.0,,,HRV,HRV_0212,2022-11-30 19:12:57
,wl-rdm,91,913103,0.0-6.83-0.83,0.0,90.0,,,,,,,[],,,,False,,,,50.0,1.0,u,0.0,False,729.0000000018626,44.0,60.0,40.0,256.33093211385767,[],"[960, 540]",ColorTask,44.0,84.0,,,HRV,HRV_0212,2022-11-30 19:12:57
,wl-rdm,92,915036,0.0-6.84-0.84,0.0,91.0,,,,,,,[],,,,False,,,,73.6,0.0,u,0.0,True,581.6999999992549,35.0,60.0,40.0,297.8843560179489,[],"[960, 540]",ColorTask,45.0,85.0,,,HRV,HRV_0212,2022-11-30 19:12:57
,wl-rdm,93,917153,0.0-6.85-0.85,0.0,92.0,,,,,,,[],,,,False,,,,87.9,0.0,u,0.0,True,677.2999999988824,41.0,60.0,40.0,370.7522348240833,[],"[960, 540]",ColorTask,46.0,86.0,,,HRV,HRV_0212,2022-11-30 19:12:57
,wl-rdm,94,919169,0.0-6.86-0.86,0.0,93.0,,,,,,,[],,,,False,,,,62.5,0.0,u,0.0,True,660.0999999996275,40.0,60.0,40.0,269.94156308778656,[],"[960, 540]",ColorTask,47.0,87.0,,,HRV,HRV_0212,2022-11-30 19:12:57
,wl-rdm,95,921303,0.0-6.87-0.87,0.0,94.0,,,,,,,[],,,,False,,,,56.4,0.0,u,0.0,True,780.0999999996275,47.0,60.0,40.0,270.0665730429428,[],"[960, 540]",ColorTask,48.0,88.0,,,HRV,HRV_0212,2022-11-30 19:12:57
,wl-rdm,96,923403,0.0-6.88-0.88,0.0,95.0,,,,,,,[],,,,False,,,,87.9,1.0,i,1.0,True,807.8999999985099,49.0,60.0,40.0,221.2398954494907,[],"[960, 540]",ColorTask,49.0,89.0,,,HRV,HRV_0212,2022-11-30 19:12:57
,wl-rdm,97,925420,0.0-6.89-0.89,0.0,96.0,,,,,,,[],,,,False,,,,73.6,1.0,i,1.0,True,698.6999999992549,42.0,60.0,40.0,261.9638441021282,[],"[960, 540]",ColorTask,50.0,90.0,,,HRV,HRV_0212,2022-11-30 19:12:57
,wl-rdm,98,927453,0.0-6.90-0.90,0.0,97.0,,,,,,,[],,,,False,,,,87.9,0.0,u,0.0,True,672.1999999992549,41.0,60.0,40.0,287.58750796677236,[],"[960, 540]",ColorTask,51.0,91.0,,,HRV,HRV_0212,2022-11-30 19:12:57
,wl-rdm,99,929637,0.0-6.91-0.91,0.0,98.0,,,,,,,[],,,,False,,,,62.5,1.0,i,1.0,True,715.5,43.0,60.0,40.0,391.71733015504685,[],"[960, 540]",ColorTask,52.0,92.0,,,HRV,HRV_0212,2022-11-30 19:12:57
,wl-rdm,100,931703,0.0-6.92-0.92,0.0,99.0,,,,,,,[],,,,False,,,,50.0,0.0,i,1.0,False,671.8000000007451,41.0,60.0,40.0,313.84130663957865,[],"[960, 540]",ColorTask,51.0,93.0,,,HRV,HRV_0212,2022-11-30 19:12:57
,wl-rdm,101,934120,0.0-6.93-0.93,0.0,100.0,,,,,,,[],,,,False,,,,73.6,0.0,u,0.0,True,1112.9999999981374,67.0,60.0,40.0,220.99845449969283,[],"[960, 540]",ColorTask,52.0,94.0,,,HRV,HRV_0212,2022-11-30 19:12:57
,wl-rdm,102,936237,0.0-6.94-0.94,0.0,101.0,,,,,,,[],,,,False,,,,50.0,0.0,u,0.0,True,759.2999999988824,46.0,60.0,40.0,270.2864393268637,[],"[960, 540]",ColorTask,53.0,95.0,,,HRV,HRV_0212,2022-11-30 19:12:57
,wl-rdm,103,938453,0.0-6.95-0.95,0.0,102.0,,,,,,,[],,,,False,,,,53.2,1.0,i,1.0,True,930.6000000014901,56.0,60.0,40.0,223.31524441913692,[],"[960, 540]",ColorTask,54.0,96.0,,,HRV,HRV_0212,2022-11-30 19:12:57
,wl-rdm,104,940320,0.0-6.96-0.96,0.0,103.0,,,,,,,[],,,,False,,,,56.4,1.0,i,1.0,True,553.8999999985099,34.0,60.0,40.0,220.20249216231988,[],"[960, 540]",ColorTask,55.0,97.0,,,HRV,HRV_0212,2022-11-30 19:12:57
,wl-rdm,105,942303,0.0-6.97-0.97,0.0,104.0,,,,,,,[],,,,False,,,,56.4,1.0,i,1.0,True,587.8000000007451,36.0,60.0,40.0,301.9372982061281,[],"[960, 540]",ColorTask,56.0,98.0,,,HRV,HRV_0212,2022-11-30 19:12:57
,wl-rdm,106,944237,0.0-6.98-0.98,0.0,105.0,,,,,,,[],,,,False,,,,53.2,1.0,i,1.0,True,524.5,32.0,60.0,40.0,319.9193636648519,[],"[960, 540]",ColorTask,57.0,99.0,,,HRV,HRV_0212,2022-11-30 19:12:57
,wl-rdm,107,946120,0.0-6.99-0.99,0.0,106.0,,,,,,,[],,,,False,,,,53.2,0.0,i,1.0,False,545.0,33.0,60.0,40.0,264.3434044885843,[],"[960, 540]",ColorTask,56.0,100.0,,,HRV,HRV_0212,2022-11-30 19:12:57
,wl-rdm,108,947936,0.0-6.100-0.100,0.0,107.0,,,,,,,[],,,,False,,,,53.2,1.0,i,1.0,True,519.0999999996275,32.0,60.0,40.0,228.1125500724828,[],"[960, 540]",ColorTask,57.0,101.0,,,HRV,HRV_0212,2022-11-30 19:12:57
,wl-rdm,109,950170,0.0-6.101-0.101,0.0,108.0,,,,,,,[],,,,False,,,,73.6,0.0,i,1.0,False,769.0,47.0,60.0,40.0,370.6640028582252,[],"[960, 540]",ColorTask,56.0,102.0,,,HRV,HRV_0212,2022-11-30 19:12:57
,wl-rdm,110,952371,0.0-6.102-0.102,0.0,109.0,,,,,,,[],,,,False,,,,50.0,1.0,i,1.0,True,825.5,50.0,60.0,40.0,312.4689344838513,[],"[960, 540]",ColorTask,57.0,103.0,,,HRV,HRV_0212,2022-11-30 19:12:57
,wl-rdm,111,954654,0.0-6.103-0.103,0.0,110.0,,,,,,,[],,,,False,,,,73.6,1.0,i,1.0,True,931.3000000007451,56.0,60.0,40.0,259.3822119893351,[],"[960, 540]",ColorTask,58.0,104.0,,,HRV,HRV_0212,2022-11-30 19:12:57
,wl-rdm,112,956870,0.0-6.104-0.104,0.0,111.0,,,,,,,[],,,,False,,,,50.0,1.0,i,1.0,True,872.1999999992549,53.0,60.0,40.0,253.22307673177895,[],"[960, 540]",ColorTask,59.0,105.0,,,HRV,HRV_0212,2022-11-30 19:12:57
,wl-rdm,113,958970,0.0-6.105-0.105,0.0,112.0,,,,,,,[],,,,False,,,,50.0,0.0,i,1.0,False,669.5,41.0,60.0,40.0,352.5552938945285,[],"[960, 540]",ColorTask,58.0,106.0,,,HRV,HRV_0212,2022-11-30 19:12:57
,wl-rdm,114,960803,0.0-6.106-0.106,0.0,113.0,,,,,,,[],,,,False,,,,87.9,0.0,u,0.0,True,441.7999999988824,27.0,60.0,40.0,312.0422569562672,[],"[960, 540]",ColorTask,59.0,107.0,,,HRV,HRV_0212,2022-11-30 19:12:57
,wl-rdm,115,963121,0.0-6.107-0.107,0.0,114.0,,,,,,,[],,,,False,,,,50.0,1.0,i,1.0,True,978.6999999992549,59.0,60.0,40.0,251.34127812837278,[],"[960, 540]",ColorTask,60.0,108.0,,,HRV,HRV_0212,2022-11-30 19:12:57
,wl-html-keyboard-response,116,977847,0.0-7.0-0.0,1.0,114.0,,,,,,,,12709.300000000745,1.0,0,True,undefinedblurEvent ,,,,,,,,,,,,,,,,,,,,HRV,HRV_0212,2022-11-30 19:12:57
,wl-rdm,117,979988,0.0-8.0-0.0,1.0,115.0,,,,,,,[],,,,False,,,,73.6,0.0,u,0.0,True,790.8000000007451,48.0,60.0,40.0,299.36649252469823,[],"[960, 540]",ColorTask,61.0,1.0,,,HRV,HRV_0212,2022-11-30 19:12:57
,wl-rdm,118,982087,0.0-8.1-0.1,1.0,116.0,,,,,,,[],,,,False,,,,73.6,0.0,u,0.0,True,746.2999999988824,45.0,60.0,40.0,269.846370247485,[],"[960, 540]",ColorTask,62.0,2.0,,,HRV,HRV_0212,2022-11-30 19:12:57
,wl-rdm,119,984187,0.0-8.2-0.2,1.0,117.0,,,,,,,[],,,,False,,,,53.2,0.0,u,0.0,True,734.0999999996275,44.0,60.0,40.0,292.3662773499022,[],"[960, 540]",ColorTask,63.0,3.0,,,HRV,HRV_0212,2022-11-30 19:12:57
,wl-rdm,120,986253,0.0-8.3-0.3,1.0,118.0,,,,,,,[],,,,False,,,,87.9,1.0,i,1.0,True,656.1999999973923,40.0,60.0,40.0,317.7981791539846,[],"[960, 540]",ColorTask,64.0,4.0,,,HRV,HRV_0212,2022-11-30 19:12:57
,wl-rdm,121,988420,0.0-8.4-0.4,1.0,119.0,,,,,,,[],,,,False,,,,62.5,0.0,u,0.0,True,897.9999999981374,54.0,60.0,40.0,205.48387217335954,[],"[960, 540]",ColorTask,65.0,5.0,,,HRV,HRV_0212,2022-11-30 19:12:57
,wl-rdm,122,990320,0.0-8.5-0.5,1.0,120.0,,,,,,,[],,,,False,,,,53.2,0.0,u,0.0,True,603.2000000011176,37.0,60.0,40.0,219.6241747124467,[],"[960, 540]",ColorTask,66.0,6.0,,,HRV,HRV_0212,2022-11-30 19:12:57
,wl-rdm,123,992420,0.0-8.6-0.6,1.0,121.0,,,,,,,[],,,,False,,,,53.2,0.0,u,0.0,True,815.6000000014901,49.0,60.0,40.0,214.49382497377317,[],"[960, 540]",ColorTask,67.0,7.0,,,HRV,HRV_0212,2022-11-30 19:12:57
,wl-rdm,124,994504,0.0-8.7-0.7,1.0,122.0,,,,,,,[],,,,False,,,,56.4,0.0,u,0.0,True,742.6999999992549,45.0,60.0,40.0,267.56691403545824,[],"[960, 540]",ColorTask,68.0,8.0,,,HRV,HRV_0212,2022-11-30 19:12:57
,wl-rdm,125,996536,0.0-8.8-0.8,1.0,123.0,,,,,,,[],,,,False,,,,56.4,1.0,i,1.0,True,710.6000000014901,43.0,60.0,40.0,248.9111143899911,[],"[960, 540]",ColorTask,69.0,9.0,,,HRV,HRV_0212,2022-11-30 19:12:57
,wl-rdm,126,998587,0.0-8.9-0.9,1.0,124.0,,,,,,,[],,,,False,,,,53.2,1.0,i,1.0,True,669.5,41.0,60.0,40.0,293.97951627790246,[],"[960, 540]",ColorTask,70.0,10.0,,,HRV,HRV_0212,2022-11-30 19:12:57
,wl-rdm,127,1000520,0.0-8.10-0.10,1.0,125.0,,,,,,,[],,,,False,,,,62.5,1.0,i,1.0,True,604.0,37.0,60.0,40.0,242.07122299036467,[],"[960, 540]",ColorTask,71.0,11.0,,,HRV,HRV_0212,2022-11-30 19:12:57
,wl-rdm,128,1002386,0.0-8.11-0.11,1.0,126.0,,,,,,,[],,,,False,,,,53.2,0.0,i,1.0,False,574.8999999985099,35.0,60.0,40.0,209.26804751921097,[],"[960, 540]",ColorTask,70.0,12.0,,,HRV,HRV_0212,2022-11-30 19:12:57
,wl-rdm,129,1004404,0.0-8.12-0.12,1.0,127.0,,,,,,,[],,,,False,,,,73.6,0.0,u,0.0,True,681.8999999985099,41.0,60.0,40.0,262.3229649459183,[],"[960, 540]",ColorTask,71.0,13.0,,,HRV,HRV_0212,2022-11-30 19:12:57
,wl-rdm,130,1006587,0.0-8.13-0.13,1.0,128.0,,,,,,,[],,,,False,,,,73.6,1.0,i,1.0,True,841.0999999996275,51.0,60.0,40.0,260.3085638362532,[],"[960, 540]",ColorTask,72.0,14.0,,,HRV,HRV_0212,2022-11-30 19:12:57
,wl-rdm,131,1008737,0.0-8.14-0.14,1.0,129.0,,,,,,,[],,,,False,,,,56.4,0.0,i,1.0,False,825.2999999988824,50.0,60.0,40.0,255.94473047518028,[],"[960, 540]",ColorTask,71.0,15.0,,,HRV,HRV_0212,2022-11-30 19:12:57
,wl-rdm,132,1011071,0.0-8.15-0.15,1.0,130.0,,,,,,,[],,,,False,,,,73.6,1.0,u,0.0,False,903.4000000003725,55.0,60.0,40.0,353.60596059301156,[],"[960, 540]",ColorTask,70.0,16.0,,,HRV,HRV_0212,2022-11-30 19:12:57
,wl-rdm,133,1013137,0.0-8.16-0.16,1.0,131.0,,,,,,,[],,,,False,,,,56.4,0.0,i,1.0,False,609.6999999992549,37.0,60.0,40.0,382.81282575419374,[],"[960, 540]",ColorTask,69.0,17.0,,,HRV,HRV_0212,2022-11-30 19:12:57
,wl-rdm,134,1015637,0.0-8.17-0.17,1.0,132.0,,,,,,,[],,,,False,,,,62.5,1.0,i,1.0,True,1097.0999999996275,66.0,60.0,40.0,348.2379844687314,[],"[960, 540]",ColorTask,70.0,18.0,,,HRV,HRV_0212,2022-11-30 19:12:57
,wl-rdm,135,1017754,0.0-8.18-0.18,1.0,133.0,,,,,,,[],,,,False,,,,56.4,0.0,i,1.0,False,683.5999999996275,41.0,60.0,40.0,364.7720339567064,[],"[960, 540]",ColorTask,69.0,19.0,,,HRV,HRV_0212,2022-11-30 19:12:57
,wl-rdm,136,1019654,0.0-8.19-0.19,1.0,134.0,,,,,,,[],,,,False,,,,87.9,1.0,i,1.0,True,563.0,34.0,60.0,40.0,257.34186747730905,[],"[960, 540]",ColorTask,70.0,20.0,,,HRV,HRV_0212,2022-11-30 19:12:57
,wl-rdm,137,1021737,0.0-8.20-0.20,1.0,135.0,,,,,,,[],,,,False,,,,73.6,0.0,u,0.0,True,609.8000000007451,37.0,60.0,40.0,384.15103536066545,[],"[960, 540]",ColorTask,71.0,21.0,,,HRV,HRV_0212,2022-11-30 19:12:57
,wl-rdm,138,1024104,0.0-8.21-0.21,1.0,136.0,,,,,,,[],,,,False,,,,62.5,0.0,u,0.0,True,960.7999999988824,58.0,60.0,40.0,327.80348627769143,[],"[960, 540]",ColorTask,72.0,22.0,,,HRV,HRV_0212,2022-11-30 19:12:57
,wl-rdm,139,1026203,0.0-8.22-0.22,1.0,137.0,,,,,,,[],,,,False,,,,62.5,0.0,u,0.0,True,672.1000000014901,41.0,60.0,40.0,354.47723441658064,[],"[960, 540]",ColorTask,73.0,23.0,,,HRV,HRV_0212,2022-11-30 19:12:57
,wl-rdm,140,1028371,0.0-8.23-0.23,1.0,138.0,,,,,,,[],,,,False,,,,73.6,0.0,u,0.0,True,769.0999999996275,47.0,60.0,40.0,304.7711599568906,[],"[960, 540]",ColorTask,74.0,24.0,,,HRV,HRV_0212,2022-11-30 19:12:57
,wl-rdm,141,1030421,0.0-8.24-0.24,1.0,139.0,,,,,,,[],,,,False,,,,56.4,0.0,u,0.0,True,639.5,39.0,60.0,40.0,316.7571570208662,[],"[960, 540]",ColorTask,75.0,25.0,,,HRV,HRV_0212,2022-11-30 19:12:57
,wl-rdm,142,1032337,0.0-8.25-0.25,1.0,140.0,,,,,,,[],,,,False,,,,62.5,0.0,u,0.0,True,619.7999999988824,38.0,60.0,40.0,213.3250380002378,[],"[960, 540]",ColorTask,76.0,26.0,,,HRV,HRV_0212,2022-11-30 19:12:57
,wl-rdm,143,1034438,0.0-8.26-0.26,1.0,141.0,,,,,,,[],,,,False,,,,62.5,0.0,u,0.0,True,671.8000000007451,41.0,60.0,40.0,355.9084303936923,[],"[960, 540]",ColorTask,77.0,27.0,,,HRV,HRV_0212,2022-11-30 19:12:57
,wl-rdm,144,1036621,0.0-8.27-0.27,1.0,142.0,,,,,,,[],,,,False,,,,87.9,1.0,i,1.0,True,897.7000000011176,54.0,60.0,40.0,200.80647949913833,[],"[960, 540]",ColorTask,78.0,28.0,,,HRV,HRV_0212,2022-11-30 19:12:57
,wl-rdm,145,1038770,0.0-8.28-0.28,1.0,143.0,,,,,,,[],,,,False,,,,62.5,1.0,i,1.0,True,691.4000000022352,42.0,60.0,40.0,372.6048131038586,[],"[960, 540]",ColorTask,79.0,29.0,,,HRV,HRV_0212,2022-11-30 19:12:57
,wl-rdm,146,1041155,0.0-8.29-0.29,1.0,144.0,,,,,,,[],,,,False,,,,56.4,1.0,i,1.0,True,1073.800000000745,65.0,60.0,40.0,233.78529174416994,[],"[960, 540]",ColorTask,80.0,30.0,,,HRV,HRV_0212,2022-11-30 19:12:57
,wl-rdm,147,1043338,0.0-8.30-0.30,1.0,145.0,,,,,,,[],,,,False,,,,56.4,0.0,i,1.0,False,702.6999999992549,43.0,60.0,40.0,396.7307929777719,[],"[960, 540]",ColorTask,79.0,31.0,,,HRV,HRV_0212,2022-11-30 19:12:57
,wl-rdm,148,1045422,0.0-8.31-0.31,1.0,146.0,,,,,,,[],,,,False,,,,73.6,1.0,i,1.0,True,712.1999999992549,43.0,60.0,40.0,306.22817096404793,[],"[960, 540]",ColorTask,80.0,32.0,,,HRV,HRV_0212,2022-11-30 19:12:57
,wl-rdm,149,1047405,0.0-8.32-0.32,1.0,147.0,,,,,,,[],,,,False,,,,87.9,1.0,i,1.0,True,680.7000000011176,41.0,60.0,40.0,235.01682443385263,[],"[960, 540]",ColorTask,81.0,33.0,,,HRV,HRV_0212,2022-11-30 19:12:57
,wl-rdm,150,1049621,0.0-8.33-0.33,1.0,148.0,,,,,,,[],,,,False,,,,62.5,1.0,i,1.0,True,913.8000000007451,55.0,60.0,40.0,210.39622173944016,[],"[960, 540]",ColorTask,82.0,34.0,,,HRV,HRV_0212,2022-11-30 19:12:57
,wl-rdm,151,1051722,0.0-8.34-0.34,1.0,149.0,,,,,,,[],,,,False,,,,56.4,1.0,i,1.0,True,669.6999999992549,41.0,60.0,40.0,341.45712906412734,[],"[960, 540]",ColorTask,83.0,35.0,,,HRV,HRV_0212,2022-11-30 19:12:57
,wl-rdm,152,1053639,0.0-8.35-0.35,1.0,150.0,,,,,,,[],,,,False,,,,62.5,0.0,i,1.0,False,630.5999999996275,38.0,60.0,40.0,204.29297150469654,[],"[960, 540]",ColorTask,82.0,36.0,,,HRV,HRV_0212,2022-11-30 19:12:57
,wl-rdm,153,1055722,0.0-8.36-0.36,1.0,151.0,,,,,,,[],,,,False,,,,50.0,1.0,i,1.0,True,719.3000000007451,44.0,60.0,40.0,283.21449447304406,[],"[960, 540]",ColorTask,83.0,37.0,,,HRV,HRV_0212,2022-11-30 19:12:57
,wl-rdm,154,1057622,0.0-8.37-0.37,1.0,152.0,,,,,,,[],,,,False,,,,56.4,1.0,i,1.0,True,613.9000000022352,37.0,60.0,40.0,212.7556608466068,[],"[960, 540]",ColorTask,84.0,38.0,,,HRV,HRV_0212,2022-11-30 19:12:57
,wl-rdm,155,1059539,0.0-8.38-0.38,1.0,153.0,,,,,,,[],,,,False,,,,56.4,1.0,i,1.0,True,625.6999999992549,38.0,60.0,40.0,205.07675123088936,[],"[960, 540]",ColorTask,85.0,39.0,,,HRV,HRV_0212,2022-11-30 19:12:57
,wl-rdm,156,1061421,0.0-8.39-0.39,1.0,154.0,,,,,,,[],,,,False,,,,53.2,1.0,i,1.0,True,563.8000000007451,34.0,60.0,40.0,237.03999114358237,[],"[960, 540]",ColorTask,86.0,40.0,,,HRV,HRV_0212,2022-11-30 19:12:57
,wl-rdm,157,1063355,0.0-8.40-0.40,1.0,155.0,,,,,,,[],,,,False,,,,50.0,1.0,i,1.0,True,620.0,38.0,60.0,40.0,231.9792048476334,[],"[960, 540]",ColorTask,87.0,41.0,,,HRV,HRV_0212,2022-11-30 19:12:57
,wl-rdm,158,1065555,0.0-8.41-0.41,1.0,156.0,,,,,,,[],,,,False,,,,73.6,0.0,u,0.0,True,834.0,50.0,60.0,40.0,290.55166918472867,[],"[960, 540]",ColorTask,88.0,42.0,,,HRV,HRV_0212,2022-11-30 19:12:57
,wl-rdm,159,1067572,0.0-8.42-0.42,1.0,157.0,,,,,,,[],,,,False,,,,53.2,1.0,u,0.0,False,722.9000000003725,44.0,60.0,40.0,219.34506215731128,[],"[960, 540]",ColorTask,87.0,43.0,,,HRV,HRV_0212,2022-11-30 19:12:57
,wl-rdm,160,1069689,0.0-8.43-0.43,1.0,158.0,,,,,,,[],,,,False,,,,73.6,1.0,i,1.0,True,760.7000000029802,46.0,60.0,40.0,282.53598110274356,[],"[960, 540]",ColorTask,88.0,44.0,,,HRV,HRV_0212,2022-11-30 19:12:57
,wl-rdm,161,1071656,0.0-8.44-0.44,1.0,159.0,,,,,,,[],,,,False,,,,50.0,1.0,i,1.0,True,620.7999999988824,38.0,60.0,40.0,252.1266231231747,[],"[960, 540]",ColorTask,89.0,45.0,,,HRV,HRV_0212,2022-11-30 19:12:57
,wl-rdm,162,1073756,0.0-8.45-0.45,1.0,160.0,,,,,,,[],,,,False,,,,56.4,1.0,i,1.0,True,657.9000000022352,40.0,60.0,40.0,364.0456150021354,[],"[960, 540]",ColorTask,90.0,46.0,,,HRV,HRV_0212,2022-11-30 19:12:57
,wl-rdm,163,1075939,0.0-8.46-0.46,1.0,161.0,,,,,,,[],,,,False,,,,87.9,1.0,i,1.0,True,885.9000000003725,54.0,60.0,40.0,214.92827529928817,[],"[960, 540]",ColorTask,91.0,47.0,,,HRV,HRV_0212,2022-11-30 19:12:57
,wl-rdm,164,1078007,0.0-8.47-0.47,1.0,162.0,,,,,,,[],,,,False,,,,53.2,0.0,i,1.0,False,738.5999999996275,45.0,60.0,40.0,264.1287125880376,[],"[960, 540]",ColorTask,90.0,48.0,,,HRV,HRV_0212,2022-11-30 19:12:57
,wl-rdm,165,1080089,0.0-8.48-0.48,1.0,163.0,,,,,,,[],,,,False,,,,73.6,1.0,i,1.0,True,693.9000000003725,42.0,60.0,40.0,309.1577133655877,[],"[960, 540]",ColorTask,91.0,49.0,,,HRV,HRV_0212,2022-11-30 19:12:57
,wl-rdm,166,1082122,0.0-8.49-0.49,1.0,164.0,,,,,,,[],,,,False,,,,50.0,0.0,u,0.0,True,599.6000000014901,36.0,60.0,40.0,358.31173701993725,[],"[960, 540]",ColorTask,92.0,50.0,,,HRV,HRV_0212,2022-11-30 19:12:57
,wl-rdm,167,1084356,0.0-8.50-0.50,1.0,165.0,,,,,,,[],,,,False,,,,53.2,0.0,u,0.0,True,849.3000000007451,51.0,60.0,40.0,311.5092616738617,[],"[960, 540]",ColorTask,93.0,51.0,,,HRV,HRV_0212,2022-11-30 19:12:57
,wl-rdm,168,1086206,0.0-8.51-0.51,1.0,166.0,,,,,,,[],,,,False,,,,50.0,1.0,u,0.0,False,557.0,34.0,60.0,40.0,201.97498986543295,[],"[960, 540]",ColorTask,92.0,52.0,,,HRV,HRV_0212,2022-11-30 19:12:57
,wl-rdm,169,1088106,0.0-8.52-0.52,1.0,167.0,,,,,,,[],,,,False,,,,62.5,1.0,i,1.0,True,591.5999999996275,36.0,60.0,40.0,249.87974960952647,[],"[960, 540]",ColorTask,93.0,53.0,,,HRV,HRV_0212,2022-11-30 19:12:57
,wl-rdm,170,1089973,0.0-8.53-0.53,1.0,168.0,,,,,,,[],,,,False,,,,73.6,0.0,i,1.0,False,532.7000000011176,32.0,60.0,40.0,266.3161443895709,[],"[960, 540]",ColorTask,92.0,54.0,,,HRV,HRV_0212,2022-11-30 19:12:57
,wl-rdm,171,1092239,0.0-8.54-0.54,1.0,169.0,,,,,,,[],,,,False,,,,50.0,0.0,u,0.0,True,994.9000000003725,60.0,60.0,40.0,210.70892731551274,[],"[960, 540]",ColorTask,93.0,55.0,,,HRV,HRV_0212,2022-11-30 19:12:57
,wl-rdm,172,1094455,0.0-8.55-0.55,1.0,170.0,,,,,,,[],,,,False,,,,56.4,0.0,i,1.0,False,910.6999999992549,55.0,60.0,40.0,230.7320594439086,[],"[960, 540]",ColorTask,92.0,56.0,,,HRV,HRV_0212,2022-11-30 19:12:57
,wl-rdm,173,1096606,0.0-8.56-0.56,1.0,171.0,,,,,,,[],,,,False,,,,73.6,1.0,u,0.0,False,864.6999999992549,52.0,60.0,40.0,202.85140692121524,[],"[960, 540]",ColorTask,91.0,57.0,,,HRV,HRV_0212,2022-11-30 19:12:57
,wl-rdm,174,1098723,0.0-8.57-0.57,1.0,172.0,,,,,,,[],,,,False,,,,87.9,0.0,u,0.0,True,725.5999999996275,44.0,60.0,40.0,313.08760921711496,[],"[960, 540]",ColorTask,92.0,58.0,,,HRV,HRV_0212,2022-11-30 19:12:57
,wl-rdm,175,1100606,0.0-8.58-0.58,1.0,173.0,,,,,,,[],,,,False,,,,50.0,1.0,u,0.0,False,613.0,37.0,60.0,40.0,211.3209389338974,[],"[960, 540]",ColorTask,91.0,59.0,,,HRV,HRV_0212,2022-11-30 19:12:57
,wl-rdm,176,1102489,0.0-8.59-0.59,1.0,174.0,,,,,,,[],,,,False,,,,50.0,0.0,u,0.0,True,576.5999999996275,35.0,60.0,40.0,228.54047539462906,[],"[960, 540]",ColorTask,92.0,60.0,,,HRV,HRV_0212,2022-11-30 19:12:57
,wl-rdm,177,1105039,0.0-8.60-0.60,1.0,175.0,,,,,,,[],,,,False,,,,56.4,1.0,u,0.0,False,1278.699999999255,77.0,60.0,40.0,205.2437837457278,[],"[960, 540]",ColorTask,91.0,61.0,,,HRV,HRV_0212,2022-11-30 19:12:57
,wl-rdm,178,1107206,0.0-8.61-0.61,1.0,176.0,,,,,,,[],,,,False,,,,53.2,1.0,i,1.0,True,872.7999999988824,53.0,60.0,40.0,200.2062683301448,[],"[960, 540]",ColorTask,92.0,62.0,,,HRV,HRV_0212,2022-11-30 19:12:57
,wl-rdm,179,1109256,0.0-8.62-0.62,1.0,177.0,,,,,,,[],,,,False,,,,87.9,0.0,u,0.0,True,727.8000000007451,44.0,60.0,40.0,242.62630113142396,[],"[960, 540]",ColorTask,93.0,63.0,,,HRV,HRV_0212,2022-11-30 19:12:57
,wl-rdm,180,1111472,0.0-8.63-0.63,1.0,178.0,,,,,,,[],,,,False,,,,73.6,0.0,u,0.0,True,852.0,52.0,60.0,40.0,280.3805787186283,[],"[960, 540]",ColorTask,94.0,64.0,,,HRV,HRV_0212,2022-11-30 19:12:57
,wl-rdm,181,1113673,0.0-8.64-0.64,1.0,179.0,,,,,,,[],,,,False,,,,62.5,0.0,u,0.0,True,852.9000000003725,52.0,60.0,40.0,258.8572927865129,[],"[960, 540]",ColorTask,95.0,65.0,,,HRV,HRV_0212,2022-11-30 19:12:57
,wl-rdm,182,1115755,0.0-8.65-0.65,1.0,180.0,,,,,,,[],,,,False,,,,62.5,1.0,i,1.0,True,790.9000000003725,48.0,60.0,40.0,211.08258496300843,[],"[960, 540]",ColorTask,96.0,66.0,,,HRV,HRV_0212,2022-11-30 19:12:57
,wl-rdm,183,1117890,0.0-8.66-0.66,1.0,181.0,,,,,,,[],,,,False,,,,53.2,1.0,i,1.0,True,710.5,43.0,60.0,40.0,334.3540494202048,[],"[960, 540]",ColorTask,97.0,67.0,,,HRV,HRV_0212,2022-11-30 19:12:57
,wl-rdm,184,1119923,0.0-8.67-0.67,1.0,182.0,,,,,,,[],,,,False,,,,73.6,1.0,i,1.0,True,574.6999999992549,35.0,60.0,40.0,387.45813167904714,[],"[960, 540]",ColorTask,98.0,68.0,,,HRV,HRV_0212,2022-11-30 19:12:57
,wl-rdm,185,1121856,0.0-8.68-0.68,1.0,183.0,,,,,,,[],,,,False,,,,56.4,0.0,i,1.0,False,627.5999999996275,38.0,60.0,40.0,243.40097429138902,[],"[960, 540]",ColorTask,97.0,69.0,,,HRV,HRV_0212,2022-11-30 19:12:57
,wl-rdm,186,1124223,0.0-8.69-0.69,1.0,184.0,,,,,,,[],,,,False,,,,53.2,0.0,i,1.0,False,962.5999999996275,58.0,60.0,40.0,321.2347453996234,[],"[960, 540]",ColorTask,96.0,70.0,,,HRV,HRV_0212,2022-11-30 19:12:57
,wl-rdm,187,1126556,0.0-8.70-0.70,1.0,185.0,,,,,,,[],,,,False,,,,62.5,0.0,u,0.0,True,1006.0,61.0,60.0,40.0,240.68162037864892,[],"[960, 540]",ColorTask,97.0,71.0,,,HRV,HRV_0212,2022-11-30 19:12:57
,wl-rdm,188,1128673,0.0-8.71-0.71,1.0,186.0,,,,,,,[],,,,False,,,,50.0,0.0,u,0.0,True,736.5999999996275,45.0,60.0,40.0,283.8749735234542,[],"[960, 540]",ColorTask,98.0,72.0,,,HRV,HRV_0212,2022-11-30 19:12:57
,wl-rdm,189,1130389,0.0-8.72-0.72,1.0,187.0,,,,,,,[],,,,False,,,,62.5,0.0,u,0.0,True,396.0,24.0,60.0,40.0,263.0587557251981,[],"[960, 540]",ColorTask,99.0,73.0,,,HRV,HRV_0212,2022-11-30 19:12:57
,wl-rdm,190,1132723,0.0-8.73-0.73,1.0,188.0,,,,,,,[],,,,False,,,,62.5,1.0,u,0.0,False,883.0999999996275,53.0,60.0,40.0,375.4917209494206,[],"[960, 540]",ColorTask,98.0,74.0,,,HRV,HRV_0212,2022-11-30 19:12:57
,wl-rdm,191,1134873,0.0-8.74-0.74,1.0,189.0,,,,,,,[],,,,False,,,,87.9,0.0,u,0.0,True,827.0,50.0,60.0,40.0,238.0129466231523,[],"[960, 540]",ColorTask,99.0,75.0,,,HRV,HRV_0212,2022-11-30 19:12:57
,wl-rdm,192,1136773,0.0-8.75-0.75,1.0,190.0,,,,,,,[],,,,False,,,,87.9,0.0,u,0.0,True,554.9999999981374,34.0,60.0,40.0,281.50190144389023,[],"[960, 540]",ColorTask,100.0,76.0,,,HRV,HRV_0212,2022-11-30 19:12:57
,wl-rdm,193,1138823,0.0-8.76-0.76,1.0,191.0,,,,,,,[],,,,False,,,,73.6,1.0,i,1.0,True,579.2000000011176,35.0,60.0,40.0,386.30873667933145,[],"[960, 540]",ColorTask,101.0,77.0,,,HRV,HRV_0212,2022-11-30 19:12:57
,wl-rdm,194,1141073,0.0-8.77-0.77,1.0,192.0,,,,,,,[],,,,False,,,,73.6,0.0,u,0.0,True,927.0999999996275,56.0,60.0,40.0,228.2932314988266,[],"[960, 540]",ColorTask,102.0,78.0,,,HRV,HRV_0212,2022-11-30 19:12:57
,wl-rdm,195,1143306,0.0-8.78-0.78,1.0,193.0,,,,,,,[],,,,False,,,,50.0,1.0,i,1.0,True,842.4999999981374,51.0,60.0,40.0,312.9704433285642,[],"[960, 540]",ColorTask,103.0,79.0,,,HRV,HRV_0212,2022-11-30 19:12:57
,wl-rdm,196,1145473,0.0-8.79-0.79,1.0,194.0,,,,,,,[],,,,False,,,,53.2,1.0,i,1.0,True,810.5,49.0,60.0,40.0,270.3122259313906,[],"[960, 540]",ColorTask,104.0,80.0,,,HRV,HRV_0212,2022-11-30 19:12:57
,wl-rdm,197,1147457,0.0-8.80-0.80,1.0,195.0,,,,,,,[],,,,False,,,,53.2,1.0,i,1.0,True,686.6999999992549,42.0,60.0,40.0,208.87191070866135,[],"[960, 540]",ColorTask,105.0,81.0,,,HRV,HRV_0212,2022-11-30 19:12:57
,wl-rdm,198,1149440,0.0-8.81-0.81,1.0,196.0,,,,,,,[],,,,False,,,,50.0,0.0,i,1.0,False,654.0999999996275,40.0,60.0,40.0,233.60572196632717,[],"[960, 540]",ColorTask,104.0,82.0,,,HRV,HRV_0212,2022-11-30 19:12:57
,wl-rdm,199,1151340,0.0-8.82-0.82,1.0,197.0,,,,,,,[],,,,False,,,,62.5,1.0,i,1.0,True,547.5999999996275,33.0,60.0,40.0,284.17019660705324,[],"[960, 540]",ColorTask,105.0,83.0,,,HRV,HRV_0212,2022-11-30 19:12:57
,wl-rdm,200,1153273,0.0-8.83-0.83,1.0,198.0,,,,,,,[],,,,False,,,,87.9,0.0,u,0.0,True,659.6999999992549,40.0,60.0,40.0,215.607304355213,[],"[960, 540]",ColorTask,106.0,84.0,,,HRV,HRV_0212,2022-11-30 19:12:57
,wl-rdm,201,1155307,0.0-8.84-0.84,1.0,199.0,,,,,,,[],,,,False,,,,87.9,1.0,i,1.0,True,675.2000000011176,41.0,60.0,40.0,277.8007271906966,[],"[960, 540]",ColorTask,107.0,85.0,,,HRV,HRV_0212,2022-11-30 19:12:57
,wl-rdm,202,1157440,0.0-8.85-0.85,1.0,200.0,,,,,,,[],,,,False,,,,87.9,0.0,u,0.0,True,668.7999999988824,41.0,60.0,40.0,392.47091774168166,[],"[960, 540]",ColorTask,108.0,86.0,,,HRV,HRV_0212,2022-11-30 19:12:57
,wl-rdm,203,1159757,0.0-8.86-0.86,1.0,201.0,,,,,,,[],,,,False,,,,53.2,1.0,i,1.0,True,907.0,55.0,60.0,40.0,330.1275366358187,[],"[960, 540]",ColorTask,109.0,87.0,,,HRV,HRV_0212,2022-11-30 19:12:57
,wl-rdm,204,1161724,0.0-8.87-0.87,1.0,202.0,,,,,,,[],,,,False,,,,50.0,0.0,i,1.0,False,648.7999999988824,39.0,60.0,40.0,236.0146191796395,[],"[960, 540]",ColorTask,108.0,88.0,,,HRV,HRV_0212,2022-11-30 19:12:57
,wl-rdm,205,1163790,0.0-8.88-0.88,1.0,203.0,,,,,,,[],,,,False,,,,53.2,0.0,i,1.0,False,663.5,40.0,60.0,40.0,325.3114195702735,[],"[960, 540]",ColorTask,107.0,89.0,,,HRV,HRV_0212,2022-11-30 19:12:57
,wl-rdm,206,1166207,0.0-8.89-0.89,1.0,204.0,,,,,,,[],,,,False,,,,50.0,0.0,i,1.0,False,953.3000000007451,58.0,60.0,40.0,398.1609078251948,[],"[960, 540]",ColorTask,106.0,90.0,,,HRV,HRV_0212,2022-11-30 19:12:57
,wl-rdm,207,1168591,0.0-8.90-0.90,1.0,205.0,,,,,,,[],,,,False,,,,50.0,1.0,i,1.0,True,1029.7999999988824,62.0,60.0,40.0,276.0735742541774,[],"[960, 540]",ColorTask,107.0,91.0,,,HRV,HRV_0212,2022-11-30 19:12:57
,wl-rdm,208,1170591,0.0-8.91-0.91,1.0,206.0,,,,,,,[],,,,False,,,,87.9,1.0,u,0.0,False,613.4000000003725,37.0,60.0,40.0,315.4678709361935,[],"[960, 540]",ColorTask,106.0,92.0,,,HRV,HRV_0212,2022-11-30 19:12:57
,wl-rdm,209,1172557,0.0-8.92-0.92,1.0,207.0,,,,,,,[],,,,False,,,,53.2,1.0,i,1.0,True,646.9000000022352,39.0,60.0,40.0,258.16897902749844,[],"[960, 540]",ColorTask,107.0,93.0,,,HRV,HRV_0212,2022-11-30 19:12:57
,wl-rdm,210,1174574,0.0-8.93-0.93,1.0,208.0,,,,,,,[],,,,False,,,,50.0,1.0,i,1.0,True,597.1999999992549,36.0,60.0,40.0,343.3730358024949,[],"[960, 540]",ColorTask,108.0,94.0,,,HRV,HRV_0212,2022-11-30 19:12:57
,wl-rdm,211,1176707,0.0-8.94-0.94,1.0,209.0,,,,,,,[],,,,False,,,,53.2,0.0,u,0.0,True,815.5999999996275,49.0,60.0,40.0,251.34848413927494,[],"[960, 540]",ColorTask,109.0,95.0,,,HRV,HRV_0212,2022-11-30 19:12:57
,wl-rdm,212,1178541,0.0-8.95-0.95,1.0,210.0,,,,,,,[],,,,False,,,,87.9,0.0,u,0.0,True,547.6000000014901,33.0,60.0,40.0,224.4141347481637,[],"[960, 540]",ColorTask,110.0,96.0,,,HRV,HRV_0212,2022-11-30 19:12:57
,wl-rdm,213,1180457,0.0-8.96-0.96,1.0,211.0,,,,,,,[],,,,False,,,,87.9,0.0,u,0.0,True,570.2000000011176,35.0,60.0,40.0,263.6465156811032,[],"[960, 540]",ColorTask,111.0,97.0,,,HRV,HRV_0212,2022-11-30 19:12:57
,wl-rdm,214,1182591,0.0-8.97-0.97,1.0,212.0,,,,,,,[],,,,False,,,,50.0,1.0,u,0.0,False,744.4000000003725,45.0,60.0,40.0,322.5686551721859,[],"[960, 540]",ColorTask,110.0,98.0,,,HRV,HRV_0212,2022-11-30 19:12:57
,wl-rdm,215,1184541,0.0-8.98-0.98,1.0,213.0,,,,,,,[],,,,False,,,,50.0,0.0,u,0.0,True,572.0999999996275,35.0,60.0,40.0,304.95874083018174,[],"[960, 540]",ColorTask,111.0,99.0,,,HRV,HRV_0212,2022-11-30 19:12:57
,wl-rdm,216,1186691,0.0-8.99-0.99,1.0,214.0,,,,,,,[],,,,False,,,,56.4,0.0,u,0.0,True,866.2999999988824,52.0,60.0,40.0,215.640364180744,[],"[960, 540]",ColorTask,112.0,100.0,,,HRV,HRV_0212,2022-11-30 19:12:57
,wl-rdm,217,1188708,0.0-8.100-0.100,1.0,215.0,,,,,,,[],,,,False,,,,87.9,1.0,i,1.0,True,665.4000000003725,40.0,60.0,40.0,286.6861748888342,[],"[960, 540]",ColorTask,113.0,101.0,,,HRV,HRV_0212,2022-11-30 19:12:57
,wl-rdm,218,1190724,0.0-8.101-0.101,1.0,216.0,,,,,,,[],,,,False,,,,87.9,1.0,i,1.0,True,674.4000000003725,41.0,60.0,40.0,252.2033098086618,[],"[960, 540]",ColorTask,114.0,102.0,,,HRV,HRV_0212,2022-11-30 19:12:57
,wl-rdm,219,1193107,0.0-8.102-0.102,1.0,217.0,,,,,,,[],,,,False,,,,62.5,1.0,i,1.0,True,933.2999999988824,56.0,60.0,40.0,370.28608756410136,[],"[960, 540]",ColorTask,115.0,103.0,,,HRV,HRV_0212,2022-11-30 19:12:57
,wl-rdm,220,1194908,0.0-8.103-0.103,1.0,218.0,,,,,,,[],,,,False,,,,73.6,1.0,i,1.0,True,523.7999999988824,32.0,60.0,40.0,200.01108714540985,[],"[960, 540]",ColorTask,116.0,104.0,,,HRV,HRV_0212,2022-11-30 19:12:57
,wl-rdm,221,1196841,0.0-8.104-0.104,1.0,219.0,,,,,,,[],,,,False,,,,50.0,0.0,i,1.0,False,569.6999999992549,35.0,60.0,40.0,269.55900855891343,[],"[960, 540]",ColorTask,115.0,105.0,,,HRV,HRV_0212,2022-11-30 19:12:57
,wl-rdm,222,1198707,0.0-8.105-0.105,1.0,220.0,,,,,,,[],,,,False,,,,56.4,1.0,i,1.0,True,465.6000000014901,28.0,60.0,40.0,324.2815277014097,[],"[960, 540]",ColorTask,116.0,106.0,,,HRV,HRV_0212,2022-11-30 19:12:57
,wl-rdm,223,1200657,0.0-8.106-0.106,1.0,221.0,,,,,,,[],,,,False,,,,56.4,1.0,i,1.0,True,511.0,31.0,60.0,40.0,363.40967552885496,[],"[960, 540]",ColorTask,117.0,107.0,,,HRV,HRV_0212,2022-11-30 19:12:57
,wl-rdm,224,1202675,0.0-8.107-0.107,1.0,222.0,,,,,,,[],,,,False,,,,87.9,0.0,u,0.0,True,670.0,41.0,60.0,40.0,258.2726809920475,[],"[960, 540]",ColorTask,118.0,108.0,,,HRV,HRV_0212,2022-11-30 19:12:57
,wl-html-button-response,225,1205448,0.0-9.0-0.0,,,,,,,,,,2764.800000000745,,0,,,,,,,,,,,,,,,,,,,,<h3>End of this session. Thank you!</h3><br>,['Close window'],HRV,HRV_0212,2022-11-30 19:12:57
