trialN,stimuli,trialStartTime,trialStartTime_UNIX,stimulus1,stimulus2,stimulus1Bid,stimulus2Bid,delta,selected,rt,rt_UNIX,rt_perfnow,receivedResponse,rsp,trialEndTime,trialDuration,trialEndTime_UNIX,trialDuration_UNIX,exp,subjectId,date
0,"[{'imgObject': {}, 'id': 'turkeysandwich', 'src': '/static/foodstim60/turkeysandwich.jpg', 'key': 'u', 'origWidth': 409, 'origHeight': 409, 'width': 409, 'height': 409, 'widthPercent': 0.45, 'rescaleHeight': False, 'trialN': 0, 'loaded': True, 'loadedTime': 2552, 'positionName': 'LEFT', 'positionCoords': [359, 245.5], 'bid': 10}, {'imgObject': {}, 'id': 'cantaloupe', 'src': '/static/foodstim60/cantaloupe.jpg', 'key': 'i', 'origWidth': 409, 'origHeight': 409, 'width': 409, 'height': 409, 'widthPercent': 0.45, 'rescaleHeight': False, 'trialN': 0, 'loaded': True, 'loadedTime': 2554, 'positionName': 'RIGHT', 'positionCoords': [832, 245.5], 'bid': 8.94}]",2627,1669833289011,turkeysandwich,cantaloupe,10.0,8.94,-1.0600000000000005,turkeysandwich,1674,1692,1692,True,u,4832,2205,1669833291217,2206,HRV,HRV_0212,2022-11-30 18:39:40
1,"[{'imgObject': {}, 'id': 'kiwi', 'src': '/static/foodstim60/kiwi.jpg', 'key': 'u', 'origWidth': 410, 'origHeight': 410, 'width': 410, 'height': 410, 'widthPercent': 0.45, 'rescaleHeight': False, 'trialN': 1, 'loaded': True, 'loadedTime': 2555, 'positionName': 'LEFT', 'positionCoords': [358, 245], 'bid': 7.75}, {'imgObject': {}, 'id': 'salad w chicken', 'src': '/static/foodstim60/salad w chicken.jpg', 'key': 'i', 'origWidth': 411, 'origHeight': 411, 'width': 411, 'height': 411, 'widthPercent': 0.45, 'rescaleHeight': False, 'trialN': 1, 'loaded': True, 'loadedTime': 2556, 'positionName': 'RIGHT', 'positionCoords': [832, 244.5], 'bid': 7.26}]",4833,1669833291218,kiwi,salad w chicken,7.75,7.26,-0.4900000000000002,kiwi,1094,1110,1110,True,u,6449,1616,1669833292834,1616,HRV,HRV_0212,2022-11-30 18:39:40
2,"[{'imgObject': {}, 'id': 'mac & cheese', 'src': '/static/foodstim60/mac & cheese.jpg', 'key': 'u', 'origWidth': 410, 'origHeight': 410, 'width': 410, 'height': 410, 'widthPercent': 0.45, 'rescaleHeight': False, 'trialN': 2, 'loaded': True, 'loadedTime': 2558, 'positionName': 'LEFT', 'positionCoords': [358, 245], 'bid': 0.06}, {'imgObject': {}, 'id': 'hashbrowns', 'src': '/static/foodstim60/hashbrowns.jpg', 'key': 'i', 'origWidth': 411, 'origHeight': 410, 'width': 411, 'height': 410, 'widthPercent': 0.45, 'rescaleHeight': False, 'trialN': 2, 'loaded': True, 'loadedTime': 2559, 'positionName': 'RIGHT', 'positionCoords': [832, 245], 'bid': 0.07}]",6449,1669833292834,mac & cheese,hashbrowns,0.06,0.07,0.010000000000000009,hashbrowns,695,701,702,True,i,7663,1214,1669833294048,1214,HRV,HRV_0212,2022-11-30 18:39:40
3,"[{'imgObject': {}, 'id': 'cheerios', 'src': '/static/foodstim60/cheerios.jpg', 'key': 'u', 'origWidth': 409, 'origHeight': 410, 'width': 409, 'height': 410, 'widthPercent': 0.45, 'rescaleHeight': False, 'trialN': 3, 'loaded': True, 'loadedTime': 2561, 'positionName': 'LEFT', 'positionCoords': [359, 245], 'bid': 0.06}, {'imgObject': {}, 'id': 'sushi w_condiments', 'src': '/static/foodstim60/sushi w_condiments.jpg', 'key': 'i', 'origWidth': 410, 'origHeight': 410, 'width': 410, 'height': 410, 'widthPercent': 0.45, 'rescaleHeight': False, 'trialN': 3, 'loaded': True, 'loadedTime': 2562, 'positionName': 'RIGHT', 'positionCoords': [832, 245], 'bid': 8.38}]",7665,1669833294049,cheerios,sushi w_condiments,0.06,8.38,8.32,sushi w_condiments,761,766,766,True,i,8938,1273,1669833295322,1273,HRV,HRV_0212,2022-11-30 18:39:40
4,"[{'imgObject': {}, 'id': 'froot loops w milk', 'src': '/static/foodstim60/froot loops w milk.jpg', 'key': 'u', 'origWidth': 410, 'origHeight': 410, 'width': 410, 'height': 410, 'widthPercent': 0.45, 'rescaleHeight': False, 'trialN': 4, 'loaded': True, 'loadedTime': 2563, 'positionName': 'LEFT', 'positionCoords': [358, 245], 'bid': 0.03}, {'imgObject': {}, 'id': 'hotdog w must', 'src': '/static/foodstim60/hotdog w must.jpg', 'key': 'i', 'origWidth': 409, 'origHeight': 409, 'width': 409, 'height': 409, 'widthPercent': 0.45, 'rescaleHeight': False, 'trialN': 4, 'loaded': True, 'loadedTime': 2564, 'positionName': 'RIGHT', 'positionCoords': [832, 245.5], 'bid': 8.08}]",8938,1669833295322,froot loops w milk,hotdog w must,0.03,8.08,8.05,hotdog w must,847,852,852,True,i,10299,1361,1669833296685,1363,HRV,HRV_0212,2022-11-30 18:39:40
5,"[{'imgObject': {}, 'id': 'bagel plain', 'src': '/static/foodstim60/bagel plain.jpg', 'key': 'u', 'origWidth': 410, 'origHeight': 410, 'width': 410, 'height': 410, 'widthPercent': 0.45, 'rescaleHeight': False, 'trialN': 5, 'loaded': True, 'loadedTime': 2566, 'positionName': 'LEFT', 'positionCoords': [358, 245], 'bid': 8.35}, {'imgObject': {}, 'id': 'mac & cheese', 'src': '/static/foodstim60/mac & cheese.jpg', 'key': 'i', 'origWidth': 410, 'origHeight': 410, 'width': 410, 'height': 410, 'widthPercent': 0.45, 'rescaleHeight': False, 'trialN': 5, 'loaded': True, 'loadedTime': 2559, 'positionName': 'RIGHT', 'positionCoords': [832, 245], 'bid': 0.06}]",10300,1669833296686,bagel plain,mac & cheese,8.35,0.06,-8.29,bagel plain,860,868,870,True,u,11680,1380,1669833298064,1378,HRV,HRV_0212,2022-11-30 18:39:40
6,"[{'imgObject': {}, 'id': 'kiwi', 'src': '/static/foodstim60/kiwi.jpg', 'key': 'u', 'origWidth': 410, 'origHeight': 410, 'width': 410, 'height': 410, 'widthPercent': 0.45, 'rescaleHeight': False, 'trialN': 6, 'loaded': True, 'loadedTime': 2556, 'positionName': 'LEFT', 'positionCoords': [358, 245], 'bid': 7.75}, {'imgObject': {}, 'id': 'chicken nuggets2', 'src': '/static/foodstim60/chicken nuggets2.jpg', 'key': 'i', 'origWidth': 410, 'origHeight': 409, 'width': 410, 'height': 409, 'widthPercent': 0.45, 'rescaleHeight': False, 'trialN': 6, 'loaded': True, 'loadedTime': 2566, 'positionName': 'RIGHT', 'positionCoords': [832, 245.5], 'bid': 7.5}]",11680,1669833298065,kiwi,chicken nuggets2,7.75,7.5,-0.25,kiwi,1261,1271,1271,True,u,13462,1782,1669833299847,1782,HRV,HRV_0212,2022-11-30 18:39:40
7,"[{'imgObject': {}, 'id': 'cherries', 'src': '/static/foodstim60/cherries.jpg', 'key': 'u', 'origWidth': 410, 'origHeight': 411, 'width': 410, 'height': 411, 'widthPercent': 0.45, 'rescaleHeight': False, 'trialN': 7, 'loaded': True, 'loadedTime': 2567, 'positionName': 'LEFT', 'positionCoords': [358, 244.5], 'bid': 8.41}, {'imgObject': {}, 'id': 'lox', 'src': '/static/foodstim60/lox.jpg', 'key': 'i', 'origWidth': 410, 'origHeight': 411, 'width': 410, 'height': 411, 'widthPercent': 0.45, 'rescaleHeight': False, 'trialN': 7, 'loaded': True, 'loadedTime': 2569, 'positionName': 'RIGHT', 'positionCoords': [832, 244.5], 'bid': 8.66}]",13463,1669833299847,cherries,lox,8.41,8.66,0.25,cherries,791,808,808,True,u,14785,1322,1669833301169,1322,HRV,HRV_0212,2022-11-30 18:39:40
8,"[{'imgObject': {}, 'id': 'sushi w_condiments', 'src': '/static/foodstim60/sushi w_condiments.jpg', 'key': 'u', 'origWidth': 410, 'origHeight': 410, 'width': 410, 'height': 410, 'widthPercent': 0.45, 'rescaleHeight': False, 'trialN': 8, 'loaded': True, 'loadedTime': 2563, 'positionName': 'LEFT', 'positionCoords': [358, 245], 'bid': 8.38}, {'imgObject': {}, 'id': 'burger', 'src': '/static/foodstim60/burger.jpg', 'key': 'i', 'origWidth': 409, 'origHeight': 409, 'width': 409, 'height': 409, 'widthPercent': 0.45, 'rescaleHeight': False, 'trialN': 8, 'loaded': True, 'loadedTime': 2570, 'positionName': 'RIGHT', 'positionCoords': [832, 245.5], 'bid': 8.44}]",14785,1669833301169,sushi w_condiments,burger,8.38,8.44,0.05999999999999872,sushi w_condiments,1516,1527,1527,True,u,16820,2035,1669833303205,2036,HRV,HRV_0212,2022-11-30 18:39:40
9,"[{'imgObject': {}, 'id': 'chickenfingers', 'src': '/static/foodstim60/chickenfingers.jpg', 'key': 'u', 'origWidth': 410, 'origHeight': 410, 'width': 410, 'height': 410, 'widthPercent': 0.45, 'rescaleHeight': False, 'trialN': 9, 'loaded': True, 'loadedTime': 2571, 'positionName': 'LEFT', 'positionCoords': [358, 245], 'bid': 8.56}, {'imgObject': {}, 'id': 'turkey sandwich', 'src': '/static/foodstim60/turkey sandwich.jpg', 'key': 'i', 'origWidth': 409, 'origHeight': 409, 'width': 409, 'height': 409, 'widthPercent': 0.45, 'rescaleHeight': False, 'trialN': 9, 'loaded': True, 'loadedTime': 2573, 'positionName': 'RIGHT', 'positionCoords': [832, 245.5], 'bid': 8.63}]",16821,1669833303205,chickenfingers,turkey sandwich,8.56,8.63,0.07000000000000028,chickenfingers,1214,1227,1225,True,u,18550,1729,1669833304934,1729,HRV,HRV_0212,2022-11-30 18:39:40
10,"[{'imgObject': {}, 'id': 'fried eggs', 'src': '/static/foodstim60/fried eggs.jpg', 'key': 'u', 'origWidth': 410, 'origHeight': 410, 'width': 410, 'height': 410, 'widthPercent': 0.45, 'rescaleHeight': False, 'trialN': 10, 'loaded': True, 'loadedTime': 2574, 'positionName': 'LEFT', 'positionCoords': [358, 245], 'bid': 8.66}, {'imgObject': {}, 'id': 'burger', 'src': '/static/foodstim60/burger.jpg', 'key': 'i', 'origWidth': 409, 'origHeight': 409, 'width': 409, 'height': 409, 'widthPercent': 0.45, 'rescaleHeight': False, 'trialN': 10, 'loaded': True, 'loadedTime': 2571, 'positionName': 'RIGHT', 'positionCoords': [832, 245.5], 'bid': 8.44}]",18550,1669833304934,fried eggs,burger,8.66,8.44,-0.22000000000000064,burger,1626,1632,1631,True,i,20682,2132,1669833307066,2132,HRV,HRV_0212,2022-11-30 18:39:40
11,"[{'imgObject': {}, 'id': 'baked potato', 'src': '/static/foodstim60/baked potato.jpg', 'key': 'u', 'origWidth': 409, 'origHeight': 410, 'width': 409, 'height': 410, 'widthPercent': 0.45, 'rescaleHeight': False, 'trialN': 11, 'loaded': True, 'loadedTime': 2576, 'positionName': 'LEFT', 'positionCoords': [359, 245], 'bid': 9.91}, {'imgObject': {}, 'id': 'sweetpotato', 'src': '/static/foodstim60/sweetpotato.jpg', 'key': 'i', 'origWidth': 410, 'origHeight': 410, 'width': 410, 'height': 410, 'widthPercent': 0.45, 'rescaleHeight': False, 'trialN': 11, 'loaded': True, 'loadedTime': 2578, 'positionName': 'RIGHT', 'positionCoords': [832, 245], 'bid': 9.92}]",20682,1669833307067,baked potato,sweetpotato,9.91,9.92,0.009999999999999787,baked potato,1119,1133,1133,True,u,22316,1634,1669833308701,1634,HRV,HRV_0212,2022-11-30 18:39:40
12,"[{'imgObject': {}, 'id': 'cocktailshrimp', 'src': '/static/foodstim60/cocktailshrimp.jpg', 'key': 'u', 'origWidth': 410, 'origHeight': 410, 'width': 410, 'height': 410, 'widthPercent': 0.45, 'rescaleHeight': False, 'trialN': 12, 'loaded': True, 'loadedTime': 2580, 'positionName': 'LEFT', 'positionCoords': [358, 245], 'bid': 8.98}, {'imgObject': {}, 'id': 'mango', 'src': '/static/foodstim60/mango.jpg', 'key': 'i', 'origWidth': 411, 'origHeight': 411, 'width': 411, 'height': 411, 'widthPercent': 0.45, 'rescaleHeight': False, 'trialN': 12, 'loaded': True, 'loadedTime': 2581, 'positionName': 'RIGHT', 'positionCoords': [832, 244.5], 'bid': 8.94}]",22316,1669833308701,cocktailshrimp,mango,8.98,8.94,-0.040000000000000924,mango,1860,1867,1866,True,i,24697,2381,1669833311081,2380,HRV,HRV_0212,2022-11-30 18:39:40
13,"[{'imgObject': {}, 'id': 'salmon', 'src': '/static/foodstim60/salmon.jpg', 'key': 'u', 'origWidth': 410, 'origHeight': 409, 'width': 410, 'height': 409, 'widthPercent': 0.45, 'rescaleHeight': False, 'trialN': 13, 'loaded': True, 'loadedTime': 2581, 'positionName': 'LEFT', 'positionCoords': [358, 245.5], 'bid': 6.37}, {'imgObject': {}, 'id': 'popsicles', 'src': '/static/foodstim60/popsicles.jpg', 'key': 'i', 'origWidth': 410, 'origHeight': 410, 'width': 410, 'height': 410, 'widthPercent': 0.45, 'rescaleHeight': False, 'trialN': 13, 'loaded': True, 'loadedTime': 2583, 'positionName': 'RIGHT', 'positionCoords': [832, 245], 'bid': 3.81}]",24697,1669833311081,salmon,popsicles,6.37,3.81,-2.56,salmon,666,669,668,True,u,25880,1183,1669833312265,1184,HRV,HRV_0212,2022-11-30 18:39:40
14,"[{'imgObject': {}, 'id': 'orange slices', 'src': '/static/foodstim60/orange slices.jpg', 'key': 'u', 'origWidth': 409, 'origHeight': 410, 'width': 409, 'height': 410, 'widthPercent': 0.45, 'rescaleHeight': False, 'trialN': 14, 'loaded': True, 'loadedTime': 2584, 'positionName': 'LEFT', 'positionCoords': [359, 245], 'bid': 8.6}, {'imgObject': {}, 'id': 'mashed potato', 'src': '/static/foodstim60/mashed potato.jpg', 'key': 'i', 'origWidth': 409, 'origHeight': 409, 'width': 409, 'height': 409, 'widthPercent': 0.45, 'rescaleHeight': False, 'trialN': 14, 'loaded': True, 'loadedTime': 2585, 'positionName': 'RIGHT', 'positionCoords': [832, 245.5], 'bid': 8.85}]",25880,1669833312265,orange slices,mashed potato,8.6,8.85,0.25,orange slices,811,823,823,True,u,27203,1323,1669833313589,1324,HRV,HRV_0212,2022-11-30 18:39:40
15,"[{'imgObject': {}, 'id': 'bagel and cc', 'src': '/static/foodstim60/bagel and cc.jpg', 'key': 'u', 'origWidth': 410, 'origHeight': 410, 'width': 410, 'height': 410, 'widthPercent': 0.45, 'rescaleHeight': False, 'trialN': 15, 'loaded': True, 'loadedTime': 2586, 'positionName': 'LEFT', 'positionCoords': [358, 245], 'bid': 8.75}, {'imgObject': {}, 'id': 'corn cob', 'src': '/static/foodstim60/corn cob.jpg', 'key': 'i', 'origWidth': 411, 'origHeight': 411, 'width': 411, 'height': 411, 'widthPercent': 0.45, 'rescaleHeight': False, 'trialN': 15, 'loaded': True, 'loadedTime': 2587, 'positionName': 'RIGHT', 'positionCoords': [832, 244.5], 'bid': 7.81}]",27204,1669833313589,bagel and cc,corn cob,8.75,7.81,-0.9400000000000004,corn cob,1237,1250,1250,True,i,28960,1756,1669833315345,1756,HRV,HRV_0212,2022-11-30 18:39:40
16,"[{'imgObject': {}, 'id': 'steak', 'src': '/static/foodstim60/steak.jpg', 'key': 'u', 'origWidth': 410, 'origHeight': 410, 'width': 410, 'height': 410, 'widthPercent': 0.45, 'rescaleHeight': False, 'trialN': 16, 'loaded': True, 'loadedTime': 2589, 'positionName': 'LEFT', 'positionCoords': [358, 245], 'bid': 9.31}, {'imgObject': {}, 'id': 'baked potato', 'src': '/static/foodstim60/baked potato.jpg', 'key': 'i', 'origWidth': 409, 'origHeight': 410, 'width': 409, 'height': 410, 'widthPercent': 0.45, 'rescaleHeight': False, 'trialN': 16, 'loaded': True, 'loadedTime': 2578, 'positionName': 'RIGHT', 'positionCoords': [832, 245], 'bid': 9.91}]",28960,1669833315346,steak,baked potato,9.31,9.91,0.5999999999999996,steak,1200,1204,1205,True,u,30674,1714,1669833317059,1713,HRV,HRV_0212,2022-11-30 18:39:40
17,"[{'imgObject': {}, 'id': 'grilled chicken strips', 'src': '/static/foodstim60/grilled chicken strips.jpg', 'key': 'u', 'origWidth': 410, 'origHeight': 411, 'width': 410, 'height': 411, 'widthPercent': 0.45, 'rescaleHeight': False, 'trialN': 17, 'loaded': True, 'loadedTime': 2589, 'positionName': 'LEFT', 'positionCoords': [358, 244.5], 'bid': 8.47}, {'imgObject': {}, 'id': 'eggsalad', 'src': '/static/foodstim60/eggsalad.jpg', 'key': 'i', 'origWidth': 410, 'origHeight': 409, 'width': 410, 'height': 409, 'widthPercent': 0.45, 'rescaleHeight': False, 'trialN': 17, 'loaded': True, 'loadedTime': 2590, 'positionName': 'RIGHT', 'positionCoords': [832, 245.5], 'bid': 7.66}]",30674,1669833317059,grilled chicken strips,eggsalad,8.47,7.66,-0.8100000000000005,grilled chicken strips,845,853,853,True,u,32031,1357,1669833318416,1357,HRV,HRV_0212,2022-11-30 18:39:40
18,"[{'imgObject': {}, 'id': 'mango', 'src': '/static/foodstim60/mango.jpg', 'key': 'u', 'origWidth': 411, 'origHeight': 411, 'width': 411, 'height': 411, 'widthPercent': 0.45, 'rescaleHeight': False, 'trialN': 18, 'loaded': True, 'loadedTime': 2581, 'positionName': 'LEFT', 'positionCoords': [357, 244.5], 'bid': 8.94}, {'imgObject': {}, 'id': 'omelette', 'src': '/static/foodstim60/omelette.jpg', 'key': 'i', 'origWidth': 410, 'origHeight': 409, 'width': 410, 'height': 409, 'widthPercent': 0.45, 'rescaleHeight': False, 'trialN': 18, 'loaded': True, 'loadedTime': 2592, 'positionName': 'RIGHT', 'positionCoords': [832, 245.5], 'bid': 8.85}]",32031,1669833318416,mango,omelette,8.94,8.85,-0.08999999999999986,mango,1207,1214,1215,True,u,33760,1729,1669833320145,1729,HRV,HRV_0212,2022-11-30 18:39:40
19,"[{'imgObject': {}, 'id': 'popsicles', 'src': '/static/foodstim60/popsicles.jpg', 'key': 'u', 'origWidth': 410, 'origHeight': 410, 'width': 410, 'height': 410, 'widthPercent': 0.45, 'rescaleHeight': False, 'trialN': 19, 'loaded': True, 'loadedTime': 2584, 'positionName': 'LEFT', 'positionCoords': [358, 245], 'bid': 3.81}, {'imgObject': {}, 'id': 'eggs', 'src': '/static/foodstim60/eggs.jpg', 'key': 'i', 'origWidth': 409, 'origHeight': 409, 'width': 409, 'height': 409, 'widthPercent': 0.45, 'rescaleHeight': False, 'trialN': 19, 'loaded': True, 'loadedTime': 2593, 'positionName': 'RIGHT', 'positionCoords': [832, 245.5], 'bid': 3.56}]",33760,1669833320145,popsicles,eggs,3.81,3.56,-0.25,eggs,1025,1028,1028,True,i,35300,1540,1669833321685,1540,HRV,HRV_0212,2022-11-30 18:39:40
20,"[{'imgObject': {}, 'id': 'bagel and cc', 'src': '/static/foodstim60/bagel and cc.jpg', 'key': 'u', 'origWidth': 410, 'origHeight': 410, 'width': 410, 'height': 410, 'widthPercent': 0.45, 'rescaleHeight': False, 'trialN': 20, 'loaded': True, 'loadedTime': 2587, 'positionName': 'LEFT', 'positionCoords': [358, 245], 'bid': 8.75}, {'imgObject': {}, 'id': 'mashed potato', 'src': '/static/foodstim60/mashed potato.jpg', 'key': 'i', 'origWidth': 409, 'origHeight': 409, 'width': 409, 'height': 409, 'widthPercent': 0.45, 'rescaleHeight': False, 'trialN': 20, 'loaded': True, 'loadedTime': 2586, 'positionName': 'RIGHT', 'positionCoords': [832, 245.5], 'bid': 8.85}]",35301,1669833321685,bagel and cc,mashed potato,8.75,8.85,0.09999999999999964,bagel and cc,953,963,961,True,u,36767,1466,1669833323151,1466,HRV,HRV_0212,2022-11-30 18:39:40
21,"[{'imgObject': {}, 'id': 'fruitsalad', 'src': '/static/foodstim60/fruitsalad.jpg', 'key': 'u', 'origWidth': 410, 'origHeight': 410, 'width': 410, 'height': 410, 'widthPercent': 0.45, 'rescaleHeight': False, 'trialN': 21, 'loaded': True, 'loadedTime': 2594, 'positionName': 'LEFT', 'positionCoords': [358, 245], 'bid': 9.95}, {'imgObject': {}, 'id': 'cocktailshrimp', 'src': '/static/foodstim60/cocktailshrimp.jpg', 'key': 'i', 'origWidth': 410, 'origHeight': 410, 'width': 410, 'height': 410, 'widthPercent': 0.45, 'rescaleHeight': False, 'trialN': 21, 'loaded': True, 'loadedTime': 2581, 'positionName': 'RIGHT', 'positionCoords': [832, 245], 'bid': 8.98}]",36767,1669833323152,fruitsalad,cocktailshrimp,9.95,8.98,-0.9699999999999989,fruitsalad,924,929,929,True,u,38199,1432,1669833324583,1431,HRV,HRV_0212,2022-11-30 18:39:40
22,"[{'imgObject': {}, 'id': 'steak', 'src': '/static/foodstim60/steak.jpg', 'key': 'u', 'origWidth': 410, 'origHeight': 410, 'width': 410, 'height': 410, 'widthPercent': 0.45, 'rescaleHeight': False, 'trialN': 22, 'loaded': True, 'loadedTime': 2589, 'positionName': 'LEFT', 'positionCoords': [358, 245], 'bid': 9.31}, {'imgObject': {}, 'id': 'blueberries', 'src': '/static/foodstim60/blueberries.jpg', 'key': 'i', 'origWidth': 411, 'origHeight': 411, 'width': 411, 'height': 411, 'widthPercent': 0.45, 'rescaleHeight': False, 'trialN': 22, 'loaded': True, 'loadedTime': 2595, 'positionName': 'RIGHT', 'positionCoords': [832, 244.5], 'bid': 9.95}]",38199,1669833324584,steak,blueberries,9.31,9.95,0.6399999999999988,steak,789,808,808,True,u,39519,1320,1669833325905,1321,HRV,HRV_0212,2022-11-30 18:39:40
23,"[{'imgObject': {}, 'id': 'corn cob', 'src': '/static/foodstim60/corn cob.jpg', 'key': 'u', 'origWidth': 411, 'origHeight': 411, 'width': 411, 'height': 411, 'widthPercent': 0.45, 'rescaleHeight': False, 'trialN': 23, 'loaded': True, 'loadedTime': 2588, 'positionName': 'LEFT', 'positionCoords': [357, 244.5], 'bid': 7.81}, {'imgObject': {}, 'id': 'eggsalad', 'src': '/static/foodstim60/eggsalad.jpg', 'key': 'i', 'origWidth': 410, 'origHeight': 409, 'width': 410, 'height': 409, 'widthPercent': 0.45, 'rescaleHeight': False, 'trialN': 23, 'loaded': True, 'loadedTime': 2592, 'positionName': 'RIGHT', 'positionCoords': [832, 245.5], 'bid': 7.66}]",39519,1669833325905,corn cob,eggsalad,7.81,7.66,-0.14999999999999947,corn cob,672,687,688,True,u,40716,1197,1669833327101,1196,HRV,HRV_0212,2022-11-30 18:39:40
24,"[{'imgObject': {}, 'id': 'Grapes', 'src': '/static/foodstim60/Grapes.jpg', 'key': 'u', 'origWidth': 411, 'origHeight': 411, 'width': 411, 'height': 411, 'widthPercent': 0.45, 'rescaleHeight': False, 'trialN': 24, 'loaded': True, 'loadedTime': 2596, 'positionName': 'LEFT', 'positionCoords': [357, 244.5], 'bid': 6.94}, {'imgObject': {}, 'id': 'roastedpotatoes', 'src': '/static/foodstim60/roastedpotatoes.jpg', 'key': 'i', 'origWidth': 409, 'origHeight': 410, 'width': 409, 'height': 410, 'widthPercent': 0.45, 'rescaleHeight': False, 'trialN': 24, 'loaded': True, 'loadedTime': 2597, 'positionName': 'RIGHT', 'positionCoords': [832, 245], 'bid': 9.87}]",40716,1669833327101,Grapes,roastedpotatoes,6.94,9.87,2.929999999999999,roastedpotatoes,1007,1010,1011,True,i,42242,1526,1669833328626,1525,HRV,HRV_0212,2022-11-30 18:39:40
25,"[{'imgObject': {}, 'id': 'strawberries', 'src': '/static/foodstim60/strawberries.jpg', 'key': 'u', 'origWidth': 410, 'origHeight': 410, 'width': 410, 'height': 410, 'widthPercent': 0.45, 'rescaleHeight': False, 'trialN': 25, 'loaded': True, 'loadedTime': 2599, 'positionName': 'LEFT', 'positionCoords': [358, 245], 'bid': 8.71}, {'imgObject': {}, 'id': 'popsicles', 'src': '/static/foodstim60/popsicles.jpg', 'key': 'i', 'origWidth': 410, 'origHeight': 410, 'width': 410, 'height': 410, 'widthPercent': 0.45, 'rescaleHeight': False, 'trialN': 25, 'loaded': True, 'loadedTime': 2584, 'positionName': 'RIGHT', 'positionCoords': [832, 245], 'bid': 3.81}]",42242,1669833328626,strawberries,popsicles,8.71,3.81,-4.9,strawberries,637,645,645,True,u,43392,1150,1669833329777,1151,HRV,HRV_0212,2022-11-30 18:39:40
26,"[{'imgObject': {}, 'id': 'raisin bran w milk', 'src': '/static/foodstim60/raisin bran w milk.jpg', 'key': 'u', 'origWidth': 411, 'origHeight': 411, 'width': 411, 'height': 411, 'widthPercent': 0.45, 'rescaleHeight': False, 'trialN': 26, 'loaded': True, 'loadedTime': 2600, 'positionName': 'LEFT', 'positionCoords': [357, 244.5], 'bid': 0}, {'imgObject': {}, 'id': 'popsicles', 'src': '/static/foodstim60/popsicles.jpg', 'key': 'i', 'origWidth': 410, 'origHeight': 410, 'width': 410, 'height': 410, 'widthPercent': 0.45, 'rescaleHeight': False, 'trialN': 26, 'loaded': True, 'loadedTime': 2584, 'positionName': 'RIGHT', 'positionCoords': [832, 245], 'bid': 3.81}]",43392,1669833329777,raisin bran w milk,popsicles,0.0,3.81,3.81,raisin bran w milk,1659,1671,1672,True,u,45574,2182,1669833331959,2182,HRV,HRV_0212,2022-11-30 18:39:40
27,"[{'imgObject': {}, 'id': 'rigatoni and sauce', 'src': '/static/foodstim60/rigatoni and sauce.jpg', 'key': 'u', 'origWidth': 410, 'origHeight': 411, 'width': 410, 'height': 411, 'widthPercent': 0.45, 'rescaleHeight': False, 'trialN': 27, 'loaded': True, 'loadedTime': 2601, 'positionName': 'LEFT', 'positionCoords': [358, 244.5], 'bid': 0.07}, {'imgObject': {}, 'id': 'Tribe humus pita', 'src': '/static/foodstim60/Tribe humus pita.jpg', 'key': 'i', 'origWidth': 411, 'origHeight': 411, 'width': 411, 'height': 411, 'widthPercent': 0.45, 'rescaleHeight': False, 'trialN': 27, 'loaded': True, 'loadedTime': 2602, 'positionName': 'RIGHT', 'positionCoords': [832, 244.5], 'bid': 6.2}]",45576,1669833331961,rigatoni and sauce,Tribe humus pita,0.07,6.2,6.13,Tribe humus pita,959,974,975,True,i,47051,1475,1669833333436,1475,HRV,HRV_0212,2022-11-30 18:39:40
28,"[{'imgObject': {}, 'id': 'steak', 'src': '/static/foodstim60/steak.jpg', 'key': 'u', 'origWidth': 410, 'origHeight': 410, 'width': 410, 'height': 410, 'widthPercent': 0.45, 'rescaleHeight': False, 'trialN': 28, 'loaded': True, 'loadedTime': 2589, 'positionName': 'LEFT', 'positionCoords': [358, 245], 'bid': 9.31}, {'imgObject': {}, 'id': 'cherries', 'src': '/static/foodstim60/cherries.jpg', 'key': 'i', 'origWidth': 410, 'origHeight': 411, 'width': 410, 'height': 411, 'widthPercent': 0.45, 'rescaleHeight': False, 'trialN': 28, 'loaded': True, 'loadedTime': 2568, 'positionName': 'RIGHT', 'positionCoords': [832, 244.5], 'bid': 8.41}]",47051,1669833333436,steak,cherries,9.31,8.41,-0.9000000000000004,cherries,1656,1660,1660,True,i,49214,2163,1669833335598,2162,HRV,HRV_0212,2022-11-30 18:39:40
29,"[{'imgObject': {}, 'id': 'raisin bran w milk', 'src': '/static/foodstim60/raisin bran w milk.jpg', 'key': 'u', 'origWidth': 411, 'origHeight': 411, 'width': 411, 'height': 411, 'widthPercent': 0.45, 'rescaleHeight': False, 'trialN': 29, 'loaded': True, 'loadedTime': 2601, 'positionName': 'LEFT', 'positionCoords': [357, 244.5], 'bid': 0}, {'imgObject': {}, 'id': 'cheerios', 'src': '/static/foodstim60/cheerios.jpg', 'key': 'i', 'origWidth': 409, 'origHeight': 410, 'width': 409, 'height': 410, 'widthPercent': 0.45, 'rescaleHeight': False, 'trialN': 29, 'loaded': True, 'loadedTime': 2562, 'positionName': 'RIGHT', 'positionCoords': [832, 245], 'bid': 0.06}]",49214,1669833335599,raisin bran w milk,cheerios,0.0,0.06,0.06,raisin bran w milk,1649,1657,1657,True,u,51384,2170,1669833337768,2169,HRV,HRV_0212,2022-11-30 18:39:40
30,"[{'imgObject': {}, 'id': 'Grapes', 'src': '/static/foodstim60/Grapes.jpg', 'key': 'u', 'origWidth': 411, 'origHeight': 411, 'width': 411, 'height': 411, 'widthPercent': 0.45, 'rescaleHeight': False, 'trialN': 30, 'loaded': True, 'loadedTime': 2597, 'positionName': 'LEFT', 'positionCoords': [357, 244.5], 'bid': 6.94}, {'imgObject': {}, 'id': 'veggieswithdip', 'src': '/static/foodstim60/veggieswithdip.jpg', 'key': 'i', 'origWidth': 409, 'origHeight': 409, 'width': 409, 'height': 409, 'widthPercent': 0.45, 'rescaleHeight': False, 'trialN': 30, 'loaded': True, 'loadedTime': 2603, 'positionName': 'RIGHT', 'positionCoords': [832, 245.5], 'bid': 6.07}]",51384,1669833337768,Grapes,veggieswithdip,6.94,6.07,-0.8700000000000001,Grapes,823,838,837,True,u,52735,1351,1669833339121,1353,HRV,HRV_0212,2022-11-30 18:39:40
31,"[{'imgObject': {}, 'id': 'avocado', 'src': '/static/foodstim60/avocado.jpg', 'key': 'u', 'origWidth': 409, 'origHeight': 409, 'width': 409, 'height': 409, 'widthPercent': 0.45, 'rescaleHeight': False, 'trialN': 31, 'loaded': True, 'loadedTime': 2604, 'positionName': 'LEFT', 'positionCoords': [359, 245.5], 'bid': 6.1000000000000005}, {'imgObject': {}, 'id': 'omelette', 'src': '/static/foodstim60/omelette.jpg', 'key': 'i', 'origWidth': 410, 'origHeight': 409, 'width': 410, 'height': 409, 'widthPercent': 0.45, 'rescaleHeight': False, 'trialN': 31, 'loaded': True, 'loadedTime': 2593, 'positionName': 'RIGHT', 'positionCoords': [832, 245.5], 'bid': 8.85}]",52736,1669833339121,avocado,omelette,6.1000000000000005,8.85,2.749999999999999,avocado,1346,1351,1352,True,u,54602,1866,1669833340987,1866,HRV,HRV_0212,2022-11-30 18:39:40
32,"[{'imgObject': {}, 'id': 'banana', 'src': '/static/foodstim60/banana.jpg', 'key': 'u', 'origWidth': 410, 'origHeight': 410, 'width': 410, 'height': 410, 'widthPercent': 0.45, 'rescaleHeight': False, 'trialN': 32, 'loaded': True, 'loadedTime': 2605, 'positionName': 'LEFT', 'positionCoords': [358, 245], 'bid': 5.71}, {'imgObject': {}, 'id': 'yogurt no spoon', 'src': '/static/foodstim60/yogurt no spoon.jpg', 'key': 'i', 'origWidth': 411, 'origHeight': 410, 'width': 411, 'height': 410, 'widthPercent': 0.45, 'rescaleHeight': False, 'trialN': 32, 'loaded': True, 'loadedTime': 2606, 'positionName': 'RIGHT', 'positionCoords': [832, 245], 'bid': 0.02}]",54602,1669833340987,banana,yogurt no spoon,5.71,0.02,-5.69,banana,1011,1029,1028,True,u,56139,1537,1669833342524,1537,HRV,HRV_0212,2022-11-30 18:39:40
33,"[{'imgObject': {}, 'id': 'avocado', 'src': '/static/foodstim60/avocado.jpg', 'key': 'u', 'origWidth': 409, 'origHeight': 409, 'width': 409, 'height': 409, 'widthPercent': 0.45, 'rescaleHeight': False, 'trialN': 33, 'loaded': True, 'loadedTime': 2605, 'positionName': 'LEFT', 'positionCoords': [359, 245.5], 'bid': 6.1000000000000005}, {'imgObject': {}, 'id': 'rigatoni', 'src': '/static/foodstim60/rigatoni.jpg', 'key': 'i', 'origWidth': 411, 'origHeight': 411, 'width': 411, 'height': 411, 'widthPercent': 0.45, 'rescaleHeight': False, 'trialN': 33, 'loaded': True, 'loadedTime': 2607, 'positionName': 'RIGHT', 'positionCoords': [832, 244.5], 'bid': 0.11}]",56139,1669833342524,avocado,rigatoni,6.1000000000000005,0.11,-5.99,avocado,834,844,844,True,u,57492,1353,1669833343876,1352,HRV,HRV_0212,2022-11-30 18:39:40
34,"[{'imgObject': {}, 'id': 'cherry tomato', 'src': '/static/foodstim60/cherry tomato.jpg', 'key': 'u', 'origWidth': 410, 'origHeight': 410, 'width': 410, 'height': 410, 'widthPercent': 0.45, 'rescaleHeight': False, 'trialN': 34, 'loaded': True, 'loadedTime': 2609, 'positionName': 'LEFT', 'positionCoords': [358, 245], 'bid': 9.95}, {'imgObject': {}, 'id': 'blueberries', 'src': '/static/foodstim60/blueberries.jpg', 'key': 'i', 'origWidth': 411, 'origHeight': 411, 'width': 411, 'height': 411, 'widthPercent': 0.45, 'rescaleHeight': False, 'trialN': 34, 'loaded': True, 'loadedTime': 2596, 'positionName': 'RIGHT', 'positionCoords': [832, 244.5], 'bid': 9.95}]",57492,1669833343877,cherry tomato,blueberries,9.95,9.95,0.0,blueberries,1809,1826,1826,True,i,59822,2330,1669833346207,2330,HRV,HRV_0212,2022-11-30 18:39:40
35,"[{'imgObject': {}, 'id': 'salad w chicken', 'src': '/static/foodstim60/salad w chicken.jpg', 'key': 'u', 'origWidth': 411, 'origHeight': 411, 'width': 411, 'height': 411, 'widthPercent': 0.45, 'rescaleHeight': False, 'trialN': 35, 'loaded': True, 'loadedTime': 2557, 'positionName': 'LEFT', 'positionCoords': [357, 244.5], 'bid': 7.26}, {'imgObject': {}, 'id': 'raspberries', 'src': '/static/foodstim60/raspberries.jpg', 'key': 'i', 'origWidth': 411, 'origHeight': 411, 'width': 411, 'height': 411, 'widthPercent': 0.45, 'rescaleHeight': False, 'trialN': 35, 'loaded': True, 'loadedTime': 2610, 'positionName': 'RIGHT', 'positionCoords': [832, 244.5], 'bid': 8.23}]",59822,1669833346207,salad w chicken,raspberries,7.26,8.23,0.9700000000000006,raspberries,2072,2081,2081,True,i,62417,2595,1669833348802,2595,HRV,HRV_0212,2022-11-30 18:39:40
36,"[{'imgObject': {}, 'id': 'rigatoni', 'src': '/static/foodstim60/rigatoni.jpg', 'key': 'u', 'origWidth': 411, 'origHeight': 411, 'width': 411, 'height': 411, 'widthPercent': 0.45, 'rescaleHeight': False, 'trialN': 36, 'loaded': True, 'loadedTime': 2608, 'positionName': 'LEFT', 'positionCoords': [357, 244.5], 'bid': 0.11}, {'imgObject': {}, 'id': 'eggs', 'src': '/static/foodstim60/eggs.jpg', 'key': 'i', 'origWidth': 409, 'origHeight': 409, 'width': 409, 'height': 409, 'widthPercent': 0.45, 'rescaleHeight': False, 'trialN': 36, 'loaded': True, 'loadedTime': 2594, 'positionName': 'RIGHT', 'positionCoords': [832, 245.5], 'bid': 3.56}]",62417,1669833348802,rigatoni,eggs,0.11,3.56,3.45,eggs,977,990,990,True,i,63913,1496,1669833350298,1496,HRV,HRV_0212,2022-11-30 18:39:40
37,"[{'imgObject': {}, 'id': 'kiwi', 'src': '/static/foodstim60/kiwi.jpg', 'key': 'u', 'origWidth': 410, 'origHeight': 410, 'width': 410, 'height': 410, 'widthPercent': 0.45, 'rescaleHeight': False, 'trialN': 37, 'loaded': True, 'loadedTime': 2556, 'positionName': 'LEFT', 'positionCoords': [358, 245], 'bid': 7.75}, {'imgObject': {}, 'id': 'pear', 'src': '/static/foodstim60/pear.jpg', 'key': 'i', 'origWidth': 411, 'origHeight': 410, 'width': 411, 'height': 410, 'widthPercent': 0.45, 'rescaleHeight': False, 'trialN': 37, 'loaded': True, 'loadedTime': 2611, 'positionName': 'RIGHT', 'positionCoords': [832, 245], 'bid': 6.2}]",63913,1669833350298,kiwi,pear,7.75,6.2,-1.5499999999999998,kiwi,1106,1116,1116,True,u,65531,1618,1669833351916,1618,HRV,HRV_0212,2022-11-30 18:39:40
38,"[{'imgObject': {}, 'id': 'salad w chicken', 'src': '/static/foodstim60/salad w chicken.jpg', 'key': 'u', 'origWidth': 411, 'origHeight': 411, 'width': 411, 'height': 411, 'widthPercent': 0.45, 'rescaleHeight': False, 'trialN': 38, 'loaded': True, 'loadedTime': 2557, 'positionName': 'LEFT', 'positionCoords': [357, 244.5], 'bid': 7.26}, {'imgObject': {}, 'id': 'rigatoni and sauce', 'src': '/static/foodstim60/rigatoni and sauce.jpg', 'key': 'i', 'origWidth': 410, 'origHeight': 411, 'width': 410, 'height': 411, 'widthPercent': 0.45, 'rescaleHeight': False, 'trialN': 38, 'loaded': True, 'loadedTime': 2602, 'positionName': 'RIGHT', 'positionCoords': [832, 244.5], 'bid': 0.07}]",65531,1669833351916,salad w chicken,rigatoni and sauce,7.26,0.07,-7.1899999999999995,salad w chicken,1035,1052,1052,True,u,67098,1567,1669833353483,1567,HRV,HRV_0212,2022-11-30 18:39:40
39,"[{'imgObject': {}, 'id': 'eggs', 'src': '/static/foodstim60/eggs.jpg', 'key': 'u', 'origWidth': 409, 'origHeight': 409, 'width': 409, 'height': 409, 'widthPercent': 0.45, 'rescaleHeight': False, 'trialN': 39, 'loaded': True, 'loadedTime': 2594, 'positionName': 'LEFT', 'positionCoords': [359, 245.5], 'bid': 3.56}, {'imgObject': {}, 'id': 'pear', 'src': '/static/foodstim60/pear.jpg', 'key': 'i', 'origWidth': 411, 'origHeight': 410, 'width': 411, 'height': 410, 'widthPercent': 0.45, 'rescaleHeight': False, 'trialN': 39, 'loaded': True, 'loadedTime': 2612, 'positionName': 'RIGHT', 'positionCoords': [832, 245], 'bid': 6.2}]",67098,1669833353483,eggs,pear,3.56,6.2,2.64,pear,1390,1405,1405,True,i,69011,1913,1669833355396,1913,HRV,HRV_0212,2022-11-30 18:39:40
40,"[{'imgObject': {}, 'id': 'hashbrowns', 'src': '/static/foodstim60/hashbrowns.jpg', 'key': 'u', 'origWidth': 411, 'origHeight': 410, 'width': 411, 'height': 410, 'widthPercent': 0.45, 'rescaleHeight': False, 'trialN': 40, 'loaded': True, 'loadedTime': 2561, 'positionName': 'LEFT', 'positionCoords': [357, 245], 'bid': 0.07}, {'imgObject': {}, 'id': 'veggieswithdip', 'src': '/static/foodstim60/veggieswithdip.jpg', 'key': 'i', 'origWidth': 409, 'origHeight': 409, 'width': 409, 'height': 409, 'widthPercent': 0.45, 'rescaleHeight': False, 'trialN': 40, 'loaded': True, 'loadedTime': 2604, 'positionName': 'RIGHT', 'positionCoords': [832, 245.5], 'bid': 6.07}]",69011,1669833355396,hashbrowns,veggieswithdip,0.07,6.07,6.0,veggieswithdip,1415,1420,1421,True,i,70942,1931,1669833357326,1930,HRV,HRV_0212,2022-11-30 18:39:40
41,"[{'imgObject': {}, 'id': 'burrito', 'src': '/static/foodstim60/burrito.jpg', 'key': 'u', 'origWidth': 410, 'origHeight': 410, 'width': 410, 'height': 410, 'widthPercent': 0.45, 'rescaleHeight': False, 'trialN': 41, 'loaded': True, 'loadedTime': 2612, 'positionName': 'LEFT', 'positionCoords': [358, 245], 'bid': 7.36}, {'imgObject': {}, 'id': 'tacos', 'src': '/static/foodstim60/tacos.jpg', 'key': 'i', 'origWidth': 411, 'origHeight': 411, 'width': 411, 'height': 411, 'widthPercent': 0.45, 'rescaleHeight': False, 'trialN': 41, 'loaded': True, 'loadedTime': 2613, 'positionName': 'RIGHT', 'positionCoords': [832, 244.5], 'bid': 7.36}]",70942,1669833357326,burrito,tacos,7.36,7.36,0.0,burrito,1281,1289,1288,True,u,72747,1805,1669833359131,1805,HRV,HRV_0212,2022-11-30 18:39:40
42,"[{'imgObject': {}, 'id': 'sushi w_condiments', 'src': '/static/foodstim60/sushi w_condiments.jpg', 'key': 'u', 'origWidth': 410, 'origHeight': 410, 'width': 410, 'height': 410, 'widthPercent': 0.45, 'rescaleHeight': False, 'trialN': 42, 'loaded': True, 'loadedTime': 2563, 'positionName': 'LEFT', 'positionCoords': [358, 245], 'bid': 8.38}, {'imgObject': {}, 'id': 'turkey sandwich', 'src': '/static/foodstim60/turkey sandwich.jpg', 'key': 'i', 'origWidth': 409, 'origHeight': 409, 'width': 409, 'height': 409, 'widthPercent': 0.45, 'rescaleHeight': False, 'trialN': 42, 'loaded': True, 'loadedTime': 2574, 'positionName': 'RIGHT', 'positionCoords': [832, 245.5], 'bid': 8.63}]",72747,1669833359131,sushi w_condiments,turkey sandwich,8.38,8.63,0.25,sushi w_condiments,897,914,914,True,u,74172,1425,1669833360558,1427,HRV,HRV_0212,2022-11-30 18:39:40
43,"[{'imgObject': {}, 'id': 'omelette', 'src': '/static/foodstim60/omelette.jpg', 'key': 'u', 'origWidth': 410, 'origHeight': 409, 'width': 410, 'height': 409, 'widthPercent': 0.45, 'rescaleHeight': False, 'trialN': 43, 'loaded': True, 'loadedTime': 2593, 'positionName': 'LEFT', 'positionCoords': [358, 245.5], 'bid': 8.85}, {'imgObject': {}, 'id': 'baked potato', 'src': '/static/foodstim60/baked potato.jpg', 'key': 'i', 'origWidth': 409, 'origHeight': 410, 'width': 409, 'height': 410, 'widthPercent': 0.45, 'rescaleHeight': False, 'trialN': 43, 'loaded': True, 'loadedTime': 2578, 'positionName': 'RIGHT', 'positionCoords': [832, 245], 'bid': 9.91}]",74172,1669833360558,omelette,baked potato,8.85,9.91,1.0600000000000005,baked potato,972,985,987,True,i,75667,1495,1669833362051,1493,HRV,HRV_0212,2022-11-30 18:39:40
44,"[{'imgObject': {}, 'id': 'mac & cheese', 'src': '/static/foodstim60/mac & cheese.jpg', 'key': 'u', 'origWidth': 410, 'origHeight': 410, 'width': 410, 'height': 410, 'widthPercent': 0.45, 'rescaleHeight': False, 'trialN': 44, 'loaded': True, 'loadedTime': 2559, 'positionName': 'LEFT', 'positionCoords': [358, 245], 'bid': 0.06}, {'imgObject': {}, 'id': 'pear', 'src': '/static/foodstim60/pear.jpg', 'key': 'i', 'origWidth': 411, 'origHeight': 410, 'width': 411, 'height': 410, 'widthPercent': 0.45, 'rescaleHeight': False, 'trialN': 44, 'loaded': True, 'loadedTime': 2612, 'positionName': 'RIGHT', 'positionCoords': [832, 245], 'bid': 6.2}]",75667,1669833362051,mac & cheese,pear,0.06,6.2,6.140000000000001,pear,915,923,922,True,i,77098,1431,1669833363483,1432,HRV,HRV_0212,2022-11-30 18:39:40
45,"[{'imgObject': {}, 'id': 'fried eggs', 'src': '/static/foodstim60/fried eggs.jpg', 'key': 'u', 'origWidth': 410, 'origHeight': 410, 'width': 410, 'height': 410, 'widthPercent': 0.45, 'rescaleHeight': False, 'trialN': 45, 'loaded': True, 'loadedTime': 2576, 'positionName': 'LEFT', 'positionCoords': [358, 245], 'bid': 8.66}, {'imgObject': {}, 'id': 'strawberries', 'src': '/static/foodstim60/strawberries.jpg', 'key': 'i', 'origWidth': 410, 'origHeight': 410, 'width': 410, 'height': 410, 'widthPercent': 0.45, 'rescaleHeight': False, 'trialN': 45, 'loaded': True, 'loadedTime': 2600, 'positionName': 'RIGHT', 'positionCoords': [832, 245], 'bid': 8.71}]",77098,1669833363483,fried eggs,strawberries,8.66,8.71,0.05000000000000071,fried eggs,1250,1253,1252,True,u,78858,1760,1669833365243,1760,HRV,HRV_0212,2022-11-30 18:39:40
46,"[{'imgObject': {}, 'id': 'froot loops w milk', 'src': '/static/foodstim60/froot loops w milk.jpg', 'key': 'u', 'origWidth': 410, 'origHeight': 410, 'width': 410, 'height': 410, 'widthPercent': 0.45, 'rescaleHeight': False, 'trialN': 46, 'loaded': True, 'loadedTime': 2564, 'positionName': 'LEFT', 'positionCoords': [358, 245], 'bid': 0.03}, {'imgObject': {}, 'id': 'yogurt no spoon', 'src': '/static/foodstim60/yogurt no spoon.jpg', 'key': 'i', 'origWidth': 411, 'origHeight': 410, 'width': 411, 'height': 410, 'widthPercent': 0.45, 'rescaleHeight': False, 'trialN': 46, 'loaded': True, 'loadedTime': 2607, 'positionName': 'RIGHT', 'positionCoords': [832, 245], 'bid': 0.02}]",78858,1669833365243,froot loops w milk,yogurt no spoon,0.03,0.02,-0.009999999999999998,froot loops w milk,2552,2564,2564,True,u,81925,3067,1669833368310,3067,HRV,HRV_0212,2022-11-30 18:39:40
47,"[{'imgObject': {}, 'id': 'fried eggs', 'src': '/static/foodstim60/fried eggs.jpg', 'key': 'u', 'origWidth': 410, 'origHeight': 410, 'width': 410, 'height': 410, 'widthPercent': 0.45, 'rescaleHeight': False, 'trialN': 47, 'loaded': True, 'loadedTime': 2576, 'positionName': 'LEFT', 'positionCoords': [358, 245], 'bid': 8.66}, {'imgObject': {}, 'id': 'bagel and cc', 'src': '/static/foodstim60/bagel and cc.jpg', 'key': 'i', 'origWidth': 410, 'origHeight': 410, 'width': 410, 'height': 410, 'widthPercent': 0.45, 'rescaleHeight': False, 'trialN': 47, 'loaded': True, 'loadedTime': 2587, 'positionName': 'RIGHT', 'positionCoords': [832, 245], 'bid': 8.75}]",81926,1669833368310,fried eggs,bagel and cc,8.66,8.75,0.08999999999999986,fried eggs,1890,1904,1903,True,u,84333,2407,1669833370718,2408,HRV,HRV_0212,2022-11-30 18:39:40
48,"[{'imgObject': {}, 'id': 'tacos', 'src': '/static/foodstim60/tacos.jpg', 'key': 'u', 'origWidth': 411, 'origHeight': 411, 'width': 411, 'height': 411, 'widthPercent': 0.45, 'rescaleHeight': False, 'trialN': 48, 'loaded': True, 'loadedTime': 2614, 'positionName': 'LEFT', 'positionCoords': [357, 244.5], 'bid': 7.36}, {'imgObject': {}, 'id': 'cherries', 'src': '/static/foodstim60/cherries.jpg', 'key': 'i', 'origWidth': 410, 'origHeight': 411, 'width': 410, 'height': 411, 'widthPercent': 0.45, 'rescaleHeight': False, 'trialN': 48, 'loaded': True, 'loadedTime': 2568, 'positionName': 'RIGHT', 'positionCoords': [832, 244.5], 'bid': 8.41}]",84334,1669833370719,tacos,cherries,7.36,8.41,1.0499999999999998,cherries,1139,1145,1145,True,i,85981,1647,1669833372366,1647,HRV,HRV_0212,2022-11-30 18:39:40
49,"[{'imgObject': {}, 'id': 'rigatoni and sauce', 'src': '/static/foodstim60/rigatoni and sauce.jpg', 'key': 'u', 'origWidth': 410, 'origHeight': 411, 'width': 410, 'height': 411, 'widthPercent': 0.45, 'rescaleHeight': False, 'trialN': 49, 'loaded': True, 'loadedTime': 2602, 'positionName': 'LEFT', 'positionCoords': [358, 244.5], 'bid': 0.07}, {'imgObject': {}, 'id': 'froot loops w milk', 'src': '/static/foodstim60/froot loops w milk.jpg', 'key': 'i', 'origWidth': 410, 'origHeight': 410, 'width': 410, 'height': 410, 'widthPercent': 0.45, 'rescaleHeight': False, 'trialN': 49, 'loaded': True, 'loadedTime': 2564, 'positionName': 'RIGHT', 'positionCoords': [832, 245], 'bid': 0.03}]",85981,1669833372366,rigatoni and sauce,froot loops w milk,0.07,0.03,-0.04000000000000001,froot loops w milk,1492,1498,1498,True,i,87986,2005,1669833374371,2005,HRV,HRV_0212,2022-11-30 18:39:40
50,"[{'imgObject': {}, 'id': 'Tribe humus pita', 'src': '/static/foodstim60/Tribe humus pita.jpg', 'key': 'u', 'origWidth': 411, 'origHeight': 411, 'width': 411, 'height': 411, 'widthPercent': 0.45, 'rescaleHeight': False, 'trialN': 50, 'loaded': True, 'loadedTime': 2603, 'positionName': 'LEFT', 'positionCoords': [357, 244.5], 'bid': 6.2}, {'imgObject': {}, 'id': 'avocado', 'src': '/static/foodstim60/avocado.jpg', 'key': 'i', 'origWidth': 409, 'origHeight': 409, 'width': 409, 'height': 409, 'widthPercent': 0.45, 'rescaleHeight': False, 'trialN': 50, 'loaded': True, 'loadedTime': 2605, 'positionName': 'RIGHT', 'positionCoords': [832, 245.5], 'bid': 6.1000000000000005}]",87986,1669833374371,Tribe humus pita,avocado,6.2,6.1000000000000005,-0.09999999999999964,Tribe humus pita,1143,1149,1149,True,u,89636,1650,1669833376020,1649,HRV,HRV_0212,2022-11-30 18:39:40
51,"[{'imgObject': {}, 'id': 'blackbeanswithrice', 'src': '/static/foodstim60/blackbeanswithrice.jpg', 'key': 'u', 'origWidth': 410, 'origHeight': 410, 'width': 410, 'height': 410, 'widthPercent': 0.45, 'rescaleHeight': False, 'trialN': 51, 'loaded': True, 'loadedTime': 2614, 'positionName': 'LEFT', 'positionCoords': [358, 245], 'bid': 0.08}, {'imgObject': {}, 'id': 'rigatoni and sauce', 'src': '/static/foodstim60/rigatoni and sauce.jpg', 'key': 'i', 'origWidth': 410, 'origHeight': 411, 'width': 410, 'height': 411, 'widthPercent': 0.45, 'rescaleHeight': False, 'trialN': 51, 'loaded': True, 'loadedTime': 2602, 'positionName': 'RIGHT', 'positionCoords': [832, 244.5], 'bid': 0.07}]",89636,1669833376020,blackbeanswithrice,rigatoni and sauce,0.08,0.07,-0.009999999999999995,rigatoni and sauce,2258,2276,2275,True,i,92418,2782,1669833378802,2782,HRV,HRV_0212,2022-11-30 18:39:40
52,"[{'imgObject': {}, 'id': 'orange slices', 'src': '/static/foodstim60/orange slices.jpg', 'key': 'u', 'origWidth': 409, 'origHeight': 410, 'width': 409, 'height': 410, 'widthPercent': 0.45, 'rescaleHeight': False, 'trialN': 52, 'loaded': True, 'loadedTime': 2585, 'positionName': 'LEFT', 'positionCoords': [359, 245], 'bid': 8.6}, {'imgObject': {}, 'id': 'chickenfingers', 'src': '/static/foodstim60/chickenfingers.jpg', 'key': 'i', 'origWidth': 410, 'origHeight': 410, 'width': 410, 'height': 410, 'widthPercent': 0.45, 'rescaleHeight': False, 'trialN': 52, 'loaded': True, 'loadedTime': 2573, 'positionName': 'RIGHT', 'positionCoords': [832, 245], 'bid': 8.56}]",92418,1669833378802,orange slices,chickenfingers,8.6,8.56,-0.03999999999999915,orange slices,1211,1222,1221,True,u,94144,1726,1669833380530,1728,HRV,HRV_0212,2022-11-30 18:39:40
53,"[{'imgObject': {}, 'id': 'corn cob', 'src': '/static/foodstim60/corn cob.jpg', 'key': 'u', 'origWidth': 411, 'origHeight': 411, 'width': 411, 'height': 411, 'widthPercent': 0.45, 'rescaleHeight': False, 'trialN': 53, 'loaded': True, 'loadedTime': 2588, 'positionName': 'LEFT', 'positionCoords': [357, 244.5], 'bid': 7.81}, {'imgObject': {}, 'id': 'salmon', 'src': '/static/foodstim60/salmon.jpg', 'key': 'i', 'origWidth': 410, 'origHeight': 409, 'width': 410, 'height': 409, 'widthPercent': 0.45, 'rescaleHeight': False, 'trialN': 53, 'loaded': True, 'loadedTime': 2583, 'positionName': 'RIGHT', 'positionCoords': [832, 245.5], 'bid': 6.37}]",94145,1669833380530,corn cob,salmon,7.81,6.37,-1.4399999999999995,corn cob,953,966,966,True,u,95615,1470,1669833382000,1470,HRV,HRV_0212,2022-11-30 18:39:40
54,"[{'imgObject': {}, 'id': 'omelette', 'src': '/static/foodstim60/omelette.jpg', 'key': 'u', 'origWidth': 410, 'origHeight': 409, 'width': 410, 'height': 409, 'widthPercent': 0.45, 'rescaleHeight': False, 'trialN': 54, 'loaded': True, 'loadedTime': 2593, 'positionName': 'LEFT', 'positionCoords': [358, 245.5], 'bid': 8.85}, {'imgObject': {}, 'id': 'hotdog w must', 'src': '/static/foodstim60/hotdog w must.jpg', 'key': 'i', 'origWidth': 409, 'origHeight': 409, 'width': 409, 'height': 409, 'widthPercent': 0.45, 'rescaleHeight': False, 'trialN': 54, 'loaded': True, 'loadedTime': 2566, 'positionName': 'RIGHT', 'positionCoords': [832, 245.5], 'bid': 8.08}]",95616,1669833382000,omelette,hotdog w must,8.85,8.08,-0.7699999999999996,omelette,1091,1095,1095,True,u,97214,1598,1669833383598,1598,HRV,HRV_0212,2022-11-30 18:39:40
55,"[{'imgObject': {}, 'id': 'granola w milk', 'src': '/static/foodstim60/granola w milk.jpg', 'key': 'u', 'origWidth': 410, 'origHeight': 410, 'width': 410, 'height': 410, 'widthPercent': 0.45, 'rescaleHeight': False, 'trialN': 55, 'loaded': True, 'loadedTime': 2616, 'positionName': 'LEFT', 'positionCoords': [358, 245], 'bid': 0.07}, {'imgObject': {}, 'id': 'olives', 'src': '/static/foodstim60/olives.jpg', 'key': 'i', 'origWidth': 410, 'origHeight': 410, 'width': 410, 'height': 410, 'widthPercent': 0.45, 'rescaleHeight': False, 'trialN': 55, 'loaded': True, 'loadedTime': 2617, 'positionName': 'RIGHT', 'positionCoords': [832, 245], 'bid': 0.03}]",97214,1669833383598,granola w milk,olives,0.07,0.03,-0.04000000000000001,granola w milk,977,993,993,True,u,98719,1505,1669833385104,1506,HRV,HRV_0212,2022-11-30 18:39:40
56,"[{'imgObject': {}, 'id': 'omelette', 'src': '/static/foodstim60/omelette.jpg', 'key': 'u', 'origWidth': 410, 'origHeight': 409, 'width': 410, 'height': 409, 'widthPercent': 0.45, 'rescaleHeight': False, 'trialN': 56, 'loaded': True, 'loadedTime': 2593, 'positionName': 'LEFT', 'positionCoords': [358, 245.5], 'bid': 8.85}, {'imgObject': {}, 'id': 'cantaloupe', 'src': '/static/foodstim60/cantaloupe.jpg', 'key': 'i', 'origWidth': 409, 'origHeight': 409, 'width': 409, 'height': 409, 'widthPercent': 0.45, 'rescaleHeight': False, 'trialN': 56, 'loaded': True, 'loadedTime': 2555, 'positionName': 'RIGHT', 'positionCoords': [832, 245.5], 'bid': 8.94}]",98719,1669833385104,omelette,cantaloupe,8.85,8.94,0.08999999999999986,cantaloupe,1129,1135,1136,True,i,100366,1647,1669833386751,1647,HRV,HRV_0212,2022-11-30 18:39:40
57,"[{'imgObject': {}, 'id': 'steak', 'src': '/static/foodstim60/steak.jpg', 'key': 'u', 'origWidth': 410, 'origHeight': 410, 'width': 410, 'height': 410, 'widthPercent': 0.45, 'rescaleHeight': False, 'trialN': 57, 'loaded': True, 'loadedTime': 2589, 'positionName': 'LEFT', 'positionCoords': [358, 245], 'bid': 9.31}, {'imgObject': {}, 'id': 'apple slices', 'src': '/static/foodstim60/apple slices.jpg', 'key': 'i', 'origWidth': 409, 'origHeight': 410, 'width': 409, 'height': 410, 'widthPercent': 0.45, 'rescaleHeight': False, 'trialN': 57, 'loaded': True, 'loadedTime': 2618, 'positionName': 'RIGHT', 'positionCoords': [832, 245], 'bid': 6.86}]",100366,1669833386751,steak,apple slices,9.31,6.86,-2.45,steak,888,897,897,True,u,101767,1401,1669833388152,1401,HRV,HRV_0212,2022-11-30 18:39:40
58,"[{'imgObject': {}, 'id': 'raspberries', 'src': '/static/foodstim60/raspberries.jpg', 'key': 'u', 'origWidth': 411, 'origHeight': 411, 'width': 411, 'height': 411, 'widthPercent': 0.45, 'rescaleHeight': False, 'trialN': 58, 'loaded': True, 'loadedTime': 2611, 'positionName': 'LEFT', 'positionCoords': [357, 244.5], 'bid': 8.23}, {'imgObject': {}, 'id': 'bagel plain', 'src': '/static/foodstim60/bagel plain.jpg', 'key': 'i', 'origWidth': 410, 'origHeight': 410, 'width': 410, 'height': 410, 'widthPercent': 0.45, 'rescaleHeight': False, 'trialN': 58, 'loaded': True, 'loadedTime': 2566, 'positionName': 'RIGHT', 'positionCoords': [832, 245], 'bid': 8.35}]",101767,1669833388152,raspberries,bagel plain,8.23,8.35,0.11999999999999922,raspberries,1190,1208,1208,True,u,103490,1723,1669833389874,1722,HRV,HRV_0212,2022-11-30 18:39:40
59,"[{'imgObject': {}, 'id': 'Tribe humus pita', 'src': '/static/foodstim60/Tribe humus pita.jpg', 'key': 'u', 'origWidth': 411, 'origHeight': 411, 'width': 411, 'height': 411, 'widthPercent': 0.45, 'rescaleHeight': False, 'trialN': 59, 'loaded': True, 'loadedTime': 2603, 'positionName': 'LEFT', 'positionCoords': [357, 244.5], 'bid': 6.2}, {'imgObject': {}, 'id': 'luckycharms', 'src': '/static/foodstim60/luckycharms.jpg', 'key': 'i', 'origWidth': 410, 'origHeight': 409, 'width': 410, 'height': 409, 'widthPercent': 0.45, 'rescaleHeight': False, 'trialN': 59, 'loaded': True, 'loadedTime': 2619, 'positionName': 'RIGHT', 'positionCoords': [832, 245.5], 'bid': 0.05}]",103490,1669833389874,Tribe humus pita,luckycharms,6.2,0.05,-6.15,Tribe humus pita,889,894,893,True,u,104888,1398,1669833391273,1399,HRV,HRV_0212,2022-11-30 18:39:40
60,"[{'imgObject': {}, 'id': 'blackbeanswithrice', 'src': '/static/foodstim60/blackbeanswithrice.jpg', 'key': 'u', 'origWidth': 410, 'origHeight': 410, 'width': 410, 'height': 410, 'widthPercent': 0.45, 'rescaleHeight': False, 'trialN': 60, 'loaded': True, 'loadedTime': 2616, 'positionName': 'LEFT', 'positionCoords': [358, 245], 'bid': 0.08}, {'imgObject': {}, 'id': 'orange slices', 'src': '/static/foodstim60/orange slices.jpg', 'key': 'i', 'origWidth': 409, 'origHeight': 410, 'width': 409, 'height': 410, 'widthPercent': 0.45, 'rescaleHeight': False, 'trialN': 60, 'loaded': True, 'loadedTime': 2585, 'positionName': 'RIGHT', 'positionCoords': [832, 245], 'bid': 8.6}]",104888,1669833391273,blackbeanswithrice,orange slices,0.08,8.6,8.52,orange slices,710,719,720,True,i,106118,1230,1669833392503,1230,HRV,HRV_0212,2022-11-30 18:39:40
61,"[{'imgObject': {}, 'id': 'lox', 'src': '/static/foodstim60/lox.jpg', 'key': 'u', 'origWidth': 410, 'origHeight': 411, 'width': 410, 'height': 411, 'widthPercent': 0.45, 'rescaleHeight': False, 'trialN': 61, 'loaded': True, 'loadedTime': 2570, 'positionName': 'LEFT', 'positionCoords': [358, 244.5], 'bid': 8.66}, {'imgObject': {}, 'id': 'blueberries', 'src': '/static/foodstim60/blueberries.jpg', 'key': 'i', 'origWidth': 411, 'origHeight': 411, 'width': 411, 'height': 411, 'widthPercent': 0.45, 'rescaleHeight': False, 'trialN': 61, 'loaded': True, 'loadedTime': 2596, 'positionName': 'RIGHT', 'positionCoords': [832, 244.5], 'bid': 9.95}]",106118,1669833392503,lox,blueberries,8.66,9.95,1.2899999999999991,blueberries,1480,1488,1489,True,i,108110,1992,1669833394494,1991,HRV,HRV_0212,2022-11-30 18:39:40
62,"[{'imgObject': {}, 'id': 'raspberries', 'src': '/static/foodstim60/raspberries.jpg', 'key': 'u', 'origWidth': 411, 'origHeight': 411, 'width': 411, 'height': 411, 'widthPercent': 0.45, 'rescaleHeight': False, 'trialN': 62, 'loaded': True, 'loadedTime': 2611, 'positionName': 'LEFT', 'positionCoords': [357, 244.5], 'bid': 8.23}, {'imgObject': {}, 'id': 'chicken nuggets2', 'src': '/static/foodstim60/chicken nuggets2.jpg', 'key': 'i', 'origWidth': 410, 'origHeight': 409, 'width': 410, 'height': 409, 'widthPercent': 0.45, 'rescaleHeight': False, 'trialN': 62, 'loaded': True, 'loadedTime': 2567, 'positionName': 'RIGHT', 'positionCoords': [832, 245.5], 'bid': 7.5}]",108110,1669833394495,raspberries,chicken nuggets2,8.23,7.5,-0.7300000000000004,chicken nuggets2,1613,1615,1615,True,i,110228,2118,1669833396613,2118,HRV,HRV_0212,2022-11-30 18:39:40
63,"[{'imgObject': {}, 'id': 'corn cob', 'src': '/static/foodstim60/corn cob.jpg', 'key': 'u', 'origWidth': 411, 'origHeight': 411, 'width': 411, 'height': 411, 'widthPercent': 0.45, 'rescaleHeight': False, 'trialN': 63, 'loaded': True, 'loadedTime': 2588, 'positionName': 'LEFT', 'positionCoords': [357, 244.5], 'bid': 7.81}, {'imgObject': {}, 'id': 'edamame', 'src': '/static/foodstim60/edamame.jpg', 'key': 'i', 'origWidth': 409, 'origHeight': 410, 'width': 409, 'height': 410, 'widthPercent': 0.45, 'rescaleHeight': False, 'trialN': 63, 'loaded': True, 'loadedTime': 2620, 'positionName': 'RIGHT', 'positionCoords': [832, 245], 'bid': 7.35}]",110229,1669833396613,corn cob,edamame,7.81,7.35,-0.45999999999999996,corn cob,962,979,978,True,u,111721,1492,1669833398106,1493,HRV,HRV_0212,2022-11-30 18:39:40
64,"[{'imgObject': {}, 'id': 'hotdog w must', 'src': '/static/foodstim60/hotdog w must.jpg', 'key': 'u', 'origWidth': 409, 'origHeight': 409, 'width': 409, 'height': 409, 'widthPercent': 0.45, 'rescaleHeight': False, 'trialN': 64, 'loaded': True, 'loadedTime': 2566, 'positionName': 'LEFT', 'positionCoords': [359, 245.5], 'bid': 8.08}, {'imgObject': {}, 'id': 'bagel plain', 'src': '/static/foodstim60/bagel plain.jpg', 'key': 'i', 'origWidth': 410, 'origHeight': 410, 'width': 410, 'height': 410, 'widthPercent': 0.45, 'rescaleHeight': False, 'trialN': 64, 'loaded': True, 'loadedTime': 2566, 'positionName': 'RIGHT', 'positionCoords': [832, 245], 'bid': 8.35}]",111721,1669833398106,hotdog w must,bagel plain,8.08,8.35,0.2699999999999996,hotdog w must,1377,1390,1390,True,u,113620,1899,1669833400005,1899,HRV,HRV_0212,2022-11-30 18:39:40
65,"[{'imgObject': {}, 'id': 'salad w chicken', 'src': '/static/foodstim60/salad w chicken.jpg', 'key': 'u', 'origWidth': 411, 'origHeight': 411, 'width': 411, 'height': 411, 'widthPercent': 0.45, 'rescaleHeight': False, 'trialN': 65, 'loaded': True, 'loadedTime': 2557, 'positionName': 'LEFT', 'positionCoords': [357, 244.5], 'bid': 7.26}, {'imgObject': {}, 'id': 'burrito', 'src': '/static/foodstim60/burrito.jpg', 'key': 'i', 'origWidth': 410, 'origHeight': 410, 'width': 410, 'height': 410, 'widthPercent': 0.45, 'rescaleHeight': False, 'trialN': 65, 'loaded': True, 'loadedTime': 2613, 'positionName': 'RIGHT', 'positionCoords': [832, 245], 'bid': 7.36}]",113620,1669833400005,salad w chicken,burrito,7.26,7.36,0.10000000000000053,salad w chicken,1603,1611,1611,True,u,115738,2118,1669833402123,2118,HRV,HRV_0212,2022-11-30 18:39:40
66,"[{'imgObject': {}, 'id': 'sweetpotato', 'src': '/static/foodstim60/sweetpotato.jpg', 'key': 'u', 'origWidth': 410, 'origHeight': 410, 'width': 410, 'height': 410, 'widthPercent': 0.45, 'rescaleHeight': False, 'trialN': 66, 'loaded': True, 'loadedTime': 2579, 'positionName': 'LEFT', 'positionCoords': [358, 245], 'bid': 9.92}, {'imgObject': {}, 'id': 'cantaloupe', 'src': '/static/foodstim60/cantaloupe.jpg', 'key': 'i', 'origWidth': 409, 'origHeight': 409, 'width': 409, 'height': 409, 'widthPercent': 0.45, 'rescaleHeight': False, 'trialN': 66, 'loaded': True, 'loadedTime': 2555, 'positionName': 'RIGHT', 'positionCoords': [832, 245.5], 'bid': 8.94}]",115738,1669833402123,sweetpotato,cantaloupe,9.92,8.94,-0.9800000000000004,sweetpotato,1235,1243,1243,True,u,117487,1749,1669833403872,1749,HRV,HRV_0212,2022-11-30 18:39:40
67,"[{'imgObject': {}, 'id': 'strawberries', 'src': '/static/foodstim60/strawberries.jpg', 'key': 'u', 'origWidth': 410, 'origHeight': 410, 'width': 410, 'height': 410, 'widthPercent': 0.45, 'rescaleHeight': False, 'trialN': 67, 'loaded': True, 'loadedTime': 2600, 'positionName': 'LEFT', 'positionCoords': [358, 245], 'bid': 8.71}, {'imgObject': {}, 'id': 'mashed potato', 'src': '/static/foodstim60/mashed potato.jpg', 'key': 'i', 'origWidth': 409, 'origHeight': 409, 'width': 409, 'height': 409, 'widthPercent': 0.45, 'rescaleHeight': False, 'trialN': 67, 'loaded': True, 'loadedTime': 2586, 'positionName': 'RIGHT', 'positionCoords': [832, 245.5], 'bid': 8.85}]",117487,1669833403872,strawberries,mashed potato,8.71,8.85,0.1399999999999988,strawberries,845,856,856,True,u,118858,1371,1669833405242,1370,HRV,HRV_0212,2022-11-30 18:39:40
68,"[{'imgObject': {}, 'id': 'cheerios', 'src': '/static/foodstim60/cheerios.jpg', 'key': 'u', 'origWidth': 409, 'origHeight': 410, 'width': 409, 'height': 410, 'widthPercent': 0.45, 'rescaleHeight': False, 'trialN': 68, 'loaded': True, 'loadedTime': 2562, 'positionName': 'LEFT', 'positionCoords': [359, 245], 'bid': 0.06}, {'imgObject': {}, 'id': 'salmon', 'src': '/static/foodstim60/salmon.jpg', 'key': 'i', 'origWidth': 410, 'origHeight': 409, 'width': 410, 'height': 409, 'widthPercent': 0.45, 'rescaleHeight': False, 'trialN': 68, 'loaded': True, 'loadedTime': 2583, 'positionName': 'RIGHT', 'positionCoords': [832, 245.5], 'bid': 6.37}]",118858,1669833405242,cheerios,salmon,0.06,6.37,6.3100000000000005,salmon,1443,1462,1460,True,i,120832,1974,1669833407217,1975,HRV,HRV_0212,2022-11-30 18:39:40
69,"[{'imgObject': {}, 'id': 'blueberries', 'src': '/static/foodstim60/blueberries.jpg', 'key': 'u', 'origWidth': 411, 'origHeight': 411, 'width': 411, 'height': 411, 'widthPercent': 0.45, 'rescaleHeight': False, 'trialN': 69, 'loaded': True, 'loadedTime': 2596, 'positionName': 'LEFT', 'positionCoords': [357, 244.5], 'bid': 9.95}, {'imgObject': {}, 'id': 'turkeysandwich', 'src': '/static/foodstim60/turkeysandwich.jpg', 'key': 'i', 'origWidth': 409, 'origHeight': 409, 'width': 409, 'height': 409, 'widthPercent': 0.45, 'rescaleHeight': False, 'trialN': 69, 'loaded': True, 'loadedTime': 2553, 'positionName': 'RIGHT', 'positionCoords': [832, 245.5], 'bid': 10}]",120832,1669833407217,blueberries,turkeysandwich,9.95,10.0,0.05000000000000071,turkeysandwich,781,790,791,True,i,122126,1294,1669833408510,1293,HRV,HRV_0212,2022-11-30 18:39:40
70,"[{'imgObject': {}, 'id': 'corn cob', 'src': '/static/foodstim60/corn cob.jpg', 'key': 'u', 'origWidth': 411, 'origHeight': 411, 'width': 411, 'height': 411, 'widthPercent': 0.45, 'rescaleHeight': False, 'trialN': 70, 'loaded': True, 'loadedTime': 2588, 'positionName': 'LEFT', 'positionCoords': [357, 244.5], 'bid': 7.81}, {'imgObject': {}, 'id': 'kiwi', 'src': '/static/foodstim60/kiwi.jpg', 'key': 'i', 'origWidth': 410, 'origHeight': 410, 'width': 410, 'height': 410, 'widthPercent': 0.45, 'rescaleHeight': False, 'trialN': 70, 'loaded': True, 'loadedTime': 2556, 'positionName': 'RIGHT', 'positionCoords': [832, 245], 'bid': 7.75}]",122126,1669833408510,corn cob,kiwi,7.81,7.75,-0.05999999999999961,corn cob,893,897,896,True,u,123528,1402,1669833409913,1403,HRV,HRV_0212,2022-11-30 18:39:40
71,"[{'imgObject': {}, 'id': 'strawberries', 'src': '/static/foodstim60/strawberries.jpg', 'key': 'u', 'origWidth': 410, 'origHeight': 410, 'width': 410, 'height': 410, 'widthPercent': 0.45, 'rescaleHeight': False, 'trialN': 71, 'loaded': True, 'loadedTime': 2600, 'positionName': 'LEFT', 'positionCoords': [358, 245], 'bid': 8.71}, {'imgObject': {}, 'id': 'kiwi', 'src': '/static/foodstim60/kiwi.jpg', 'key': 'i', 'origWidth': 410, 'origHeight': 410, 'width': 410, 'height': 410, 'widthPercent': 0.45, 'rescaleHeight': False, 'trialN': 71, 'loaded': True, 'loadedTime': 2556, 'positionName': 'RIGHT', 'positionCoords': [832, 245], 'bid': 7.75}]",123528,1669833409913,strawberries,kiwi,8.71,7.75,-0.9600000000000009,strawberries,945,958,959,True,u,124996,1468,1669833411380,1467,HRV,HRV_0212,2022-11-30 18:39:40
72,"[{'imgObject': {}, 'id': 'chicken nuggets2', 'src': '/static/foodstim60/chicken nuggets2.jpg', 'key': 'u', 'origWidth': 410, 'origHeight': 409, 'width': 410, 'height': 409, 'widthPercent': 0.45, 'rescaleHeight': False, 'trialN': 72, 'loaded': True, 'loadedTime': 2567, 'positionName': 'LEFT', 'positionCoords': [358, 245.5], 'bid': 7.5}, {'imgObject': {}, 'id': 'burger', 'src': '/static/foodstim60/burger.jpg', 'key': 'i', 'origWidth': 409, 'origHeight': 409, 'width': 409, 'height': 409, 'widthPercent': 0.45, 'rescaleHeight': False, 'trialN': 72, 'loaded': True, 'loadedTime': 2571, 'positionName': 'RIGHT', 'positionCoords': [832, 245.5], 'bid': 8.44}]",124997,1669833411381,chicken nuggets2,burger,7.5,8.44,0.9399999999999995,burger,1069,1083,1082,True,i,126595,1598,1669833412980,1599,HRV,HRV_0212,2022-11-30 18:39:40
73,"[{'imgObject': {}, 'id': 'kiwi', 'src': '/static/foodstim60/kiwi.jpg', 'key': 'u', 'origWidth': 410, 'origHeight': 410, 'width': 410, 'height': 410, 'widthPercent': 0.45, 'rescaleHeight': False, 'trialN': 73, 'loaded': True, 'loadedTime': 2556, 'positionName': 'LEFT', 'positionCoords': [358, 245], 'bid': 7.75}, {'imgObject': {}, 'id': 'raisin bran w milk', 'src': '/static/foodstim60/raisin bran w milk.jpg', 'key': 'i', 'origWidth': 411, 'origHeight': 411, 'width': 411, 'height': 411, 'widthPercent': 0.45, 'rescaleHeight': False, 'trialN': 73, 'loaded': True, 'loadedTime': 2601, 'positionName': 'RIGHT', 'positionCoords': [832, 244.5], 'bid': 0}]",126595,1669833412981,kiwi,raisin bran w milk,7.75,0.0,-7.75,kiwi,846,851,852,True,u,127959,1364,1669833414344,1363,HRV,HRV_0212,2022-11-30 18:39:40
74,"[{'imgObject': {}, 'id': 'banana', 'src': '/static/foodstim60/banana.jpg', 'key': 'u', 'origWidth': 410, 'origHeight': 410, 'width': 410, 'height': 410, 'widthPercent': 0.45, 'rescaleHeight': False, 'trialN': 74, 'loaded': True, 'loadedTime': 2606, 'positionName': 'LEFT', 'positionCoords': [358, 245], 'bid': 5.71}, {'imgObject': {}, 'id': 'apple slices', 'src': '/static/foodstim60/apple slices.jpg', 'key': 'i', 'origWidth': 409, 'origHeight': 410, 'width': 409, 'height': 410, 'widthPercent': 0.45, 'rescaleHeight': False, 'trialN': 74, 'loaded': True, 'loadedTime': 2619, 'positionName': 'RIGHT', 'positionCoords': [832, 245], 'bid': 6.86}]",127959,1669833414344,banana,apple slices,5.71,6.86,1.1500000000000004,apple slices,935,952,952,True,i,129426,1467,1669833415811,1467,HRV,HRV_0212,2022-11-30 18:39:40
75,"[{'imgObject': {}, 'id': 'sweetpotato', 'src': '/static/foodstim60/sweetpotato.jpg', 'key': 'u', 'origWidth': 410, 'origHeight': 410, 'width': 410, 'height': 410, 'widthPercent': 0.45, 'rescaleHeight': False, 'trialN': 75, 'loaded': True, 'loadedTime': 2579, 'positionName': 'LEFT', 'positionCoords': [358, 245], 'bid': 9.92}, {'imgObject': {}, 'id': 'roastedpotatoes', 'src': '/static/foodstim60/roastedpotatoes.jpg', 'key': 'i', 'origWidth': 409, 'origHeight': 410, 'width': 409, 'height': 410, 'widthPercent': 0.45, 'rescaleHeight': False, 'trialN': 75, 'loaded': True, 'loadedTime': 2599, 'positionName': 'RIGHT', 'positionCoords': [832, 245], 'bid': 9.87}]",129427,1669833415811,sweetpotato,roastedpotatoes,9.92,9.87,-0.05000000000000071,roastedpotatoes,952,964,964,True,i,130903,1476,1669833417289,1478,HRV,HRV_0212,2022-11-30 18:39:40
76,"[{'imgObject': {}, 'id': 'ice cream sundae 002', 'src': '/static/foodstim60/ice cream sundae 002.jpg', 'key': 'u', 'origWidth': 409, 'origHeight': 409, 'width': 409, 'height': 409, 'widthPercent': 0.45, 'rescaleHeight': False, 'trialN': 76, 'loaded': True, 'loadedTime': 2622, 'positionName': 'LEFT', 'positionCoords': [359, 245.5], 'bid': 3.44}, {'imgObject': {}, 'id': 'chicken nuggets2', 'src': '/static/foodstim60/chicken nuggets2.jpg', 'key': 'i', 'origWidth': 410, 'origHeight': 409, 'width': 410, 'height': 409, 'widthPercent': 0.45, 'rescaleHeight': False, 'trialN': 76, 'loaded': True, 'loadedTime': 2567, 'positionName': 'RIGHT', 'positionCoords': [832, 245.5], 'bid': 7.5}]",130904,1669833417289,ice cream sundae 002,chicken nuggets2,3.44,7.5,4.0600000000000005,chicken nuggets2,1053,1063,1063,True,i,132482,1578,1669833418866,1577,HRV,HRV_0212,2022-11-30 18:39:40
77,"[{'imgObject': {}, 'id': 'blackbeanswithrice', 'src': '/static/foodstim60/blackbeanswithrice.jpg', 'key': 'u', 'origWidth': 410, 'origHeight': 410, 'width': 410, 'height': 410, 'widthPercent': 0.45, 'rescaleHeight': False, 'trialN': 77, 'loaded': True, 'loadedTime': 2616, 'positionName': 'LEFT', 'positionCoords': [358, 245], 'bid': 0.08}, {'imgObject': {}, 'id': 'burrito', 'src': '/static/foodstim60/burrito.jpg', 'key': 'i', 'origWidth': 410, 'origHeight': 410, 'width': 410, 'height': 410, 'widthPercent': 0.45, 'rescaleHeight': False, 'trialN': 77, 'loaded': True, 'loadedTime': 2613, 'positionName': 'RIGHT', 'positionCoords': [832, 245], 'bid': 7.36}]",132482,1669833418866,blackbeanswithrice,burrito,0.08,7.36,7.28,burrito,647,660,659,True,i,133651,1169,1669833420036,1170,HRV,HRV_0212,2022-11-30 18:39:40
78,"[{'imgObject': {}, 'id': 'rigatoni and sauce', 'src': '/static/foodstim60/rigatoni and sauce.jpg', 'key': 'u', 'origWidth': 410, 'origHeight': 411, 'width': 410, 'height': 411, 'widthPercent': 0.45, 'rescaleHeight': False, 'trialN': 78, 'loaded': True, 'loadedTime': 2602, 'positionName': 'LEFT', 'positionCoords': [358, 244.5], 'bid': 0.07}, {'imgObject': {}, 'id': 'granola w milk', 'src': '/static/foodstim60/granola w milk.jpg', 'key': 'i', 'origWidth': 410, 'origHeight': 410, 'width': 410, 'height': 410, 'widthPercent': 0.45, 'rescaleHeight': False, 'trialN': 78, 'loaded': True, 'loadedTime': 2616, 'positionName': 'RIGHT', 'positionCoords': [832, 245], 'bid': 0.07}]",133651,1669833420036,rigatoni and sauce,granola w milk,0.07,0.07,0.0,granola w milk,962,972,971,True,i,135133,1482,1669833421518,1482,HRV,HRV_0212,2022-11-30 18:39:40
79,"[{'imgObject': {}, 'id': 'cherry tomato', 'src': '/static/foodstim60/cherry tomato.jpg', 'key': 'u', 'origWidth': 410, 'origHeight': 410, 'width': 410, 'height': 410, 'widthPercent': 0.45, 'rescaleHeight': False, 'trialN': 79, 'loaded': True, 'loadedTime': 2610, 'positionName': 'LEFT', 'positionCoords': [358, 245], 'bid': 9.95}, {'imgObject': {}, 'id': 'fruitsalad', 'src': '/static/foodstim60/fruitsalad.jpg', 'key': 'i', 'origWidth': 410, 'origHeight': 410, 'width': 410, 'height': 410, 'widthPercent': 0.45, 'rescaleHeight': False, 'trialN': 79, 'loaded': True, 'loadedTime': 2595, 'positionName': 'RIGHT', 'positionCoords': [832, 245], 'bid': 9.95}]",135133,1669833421518,cherry tomato,fruitsalad,9.95,9.95,0.0,fruitsalad,1074,1089,1090,True,i,136732,1599,1669833423117,1599,HRV,HRV_0212,2022-11-30 18:39:40
80,"[{'imgObject': {}, 'id': 'apple slices', 'src': '/static/foodstim60/apple slices.jpg', 'key': 'u', 'origWidth': 409, 'origHeight': 410, 'width': 409, 'height': 410, 'widthPercent': 0.45, 'rescaleHeight': False, 'trialN': 80, 'loaded': True, 'loadedTime': 2619, 'positionName': 'LEFT', 'positionCoords': [359, 245], 'bid': 6.86}, {'imgObject': {}, 'id': 'hashbrowns', 'src': '/static/foodstim60/hashbrowns.jpg', 'key': 'i', 'origWidth': 411, 'origHeight': 410, 'width': 411, 'height': 410, 'widthPercent': 0.45, 'rescaleHeight': False, 'trialN': 80, 'loaded': True, 'loadedTime': 2561, 'positionName': 'RIGHT', 'positionCoords': [832, 245], 'bid': 0.07}]",136732,1669833423117,apple slices,hashbrowns,6.86,0.07,-6.79,hashbrowns,1022,1026,1026,True,i,138264,1532,1669833424648,1531,HRV,HRV_0212,2022-11-30 18:39:40
81,"[{'imgObject': {}, 'id': 'omelette', 'src': '/static/foodstim60/omelette.jpg', 'key': 'u', 'origWidth': 410, 'origHeight': 409, 'width': 410, 'height': 409, 'widthPercent': 0.45, 'rescaleHeight': False, 'trialN': 81, 'loaded': True, 'loadedTime': 2593, 'positionName': 'LEFT', 'positionCoords': [358, 245.5], 'bid': 8.85}, {'imgObject': {}, 'id': 'blueberries', 'src': '/static/foodstim60/blueberries.jpg', 'key': 'i', 'origWidth': 411, 'origHeight': 411, 'width': 411, 'height': 411, 'widthPercent': 0.45, 'rescaleHeight': False, 'trialN': 81, 'loaded': True, 'loadedTime': 2596, 'positionName': 'RIGHT', 'positionCoords': [832, 244.5], 'bid': 9.95}]",138264,1669833424649,omelette,blueberries,8.85,9.95,1.0999999999999996,blueberries,990,998,999,True,i,139774,1510,1669833426159,1510,HRV,HRV_0212,2022-11-30 18:39:40
82,"[{'imgObject': {}, 'id': 'yogurt no spoon', 'src': '/static/foodstim60/yogurt no spoon.jpg', 'key': 'u', 'origWidth': 411, 'origHeight': 410, 'width': 411, 'height': 410, 'widthPercent': 0.45, 'rescaleHeight': False, 'trialN': 82, 'loaded': True, 'loadedTime': 2607, 'positionName': 'LEFT', 'positionCoords': [357, 245], 'bid': 0.02}, {'imgObject': {}, 'id': 'corn cob', 'src': '/static/foodstim60/corn cob.jpg', 'key': 'i', 'origWidth': 411, 'origHeight': 411, 'width': 411, 'height': 411, 'widthPercent': 0.45, 'rescaleHeight': False, 'trialN': 82, 'loaded': True, 'loadedTime': 2589, 'positionName': 'RIGHT', 'positionCoords': [832, 244.5], 'bid': 7.81}]",139774,1669833426160,yogurt no spoon,corn cob,0.02,7.81,7.79,corn cob,683,695,697,True,i,140973,1199,1669833427358,1198,HRV,HRV_0212,2022-11-30 18:39:40
83,"[{'imgObject': {}, 'id': 'hashbrowns', 'src': '/static/foodstim60/hashbrowns.jpg', 'key': 'u', 'origWidth': 411, 'origHeight': 410, 'width': 411, 'height': 410, 'widthPercent': 0.45, 'rescaleHeight': False, 'trialN': 83, 'loaded': True, 'loadedTime': 2561, 'positionName': 'LEFT', 'positionCoords': [357, 245], 'bid': 0.07}, {'imgObject': {}, 'id': 'cherries', 'src': '/static/foodstim60/cherries.jpg', 'key': 'i', 'origWidth': 410, 'origHeight': 411, 'width': 410, 'height': 411, 'widthPercent': 0.45, 'rescaleHeight': False, 'trialN': 83, 'loaded': True, 'loadedTime': 2568, 'positionName': 'RIGHT', 'positionCoords': [832, 244.5], 'bid': 8.41}]",140973,1669833427358,hashbrowns,cherries,0.07,8.41,8.34,cherries,906,914,914,True,i,142402,1429,1669833428787,1429,HRV,HRV_0212,2022-11-30 18:39:40
84,"[{'imgObject': {}, 'id': 'luckycharms', 'src': '/static/foodstim60/luckycharms.jpg', 'key': 'u', 'origWidth': 410, 'origHeight': 409, 'width': 410, 'height': 409, 'widthPercent': 0.45, 'rescaleHeight': False, 'trialN': 84, 'loaded': True, 'loadedTime': 2620, 'positionName': 'LEFT', 'positionCoords': [358, 245.5], 'bid': 0.05}, {'imgObject': {}, 'id': 'mac & cheese', 'src': '/static/foodstim60/mac & cheese.jpg', 'key': 'i', 'origWidth': 410, 'origHeight': 410, 'width': 410, 'height': 410, 'widthPercent': 0.45, 'rescaleHeight': False, 'trialN': 84, 'loaded': True, 'loadedTime': 2559, 'positionName': 'RIGHT', 'positionCoords': [832, 245], 'bid': 0.06}]",142402,1669833428787,luckycharms,mac & cheese,0.05,0.06,0.009999999999999995,luckycharms,1539,1555,1555,True,u,144459,2057,1669833430844,2057,HRV,HRV_0212,2022-11-30 18:39:40
85,"[{'imgObject': {}, 'id': 'sweetpotato', 'src': '/static/foodstim60/sweetpotato.jpg', 'key': 'u', 'origWidth': 410, 'origHeight': 410, 'width': 410, 'height': 410, 'widthPercent': 0.45, 'rescaleHeight': False, 'trialN': 85, 'loaded': True, 'loadedTime': 2580, 'positionName': 'LEFT', 'positionCoords': [358, 245], 'bid': 9.92}, {'imgObject': {}, 'id': 'chickenfingers', 'src': '/static/foodstim60/chickenfingers.jpg', 'key': 'i', 'origWidth': 410, 'origHeight': 410, 'width': 410, 'height': 410, 'widthPercent': 0.45, 'rescaleHeight': False, 'trialN': 85, 'loaded': True, 'loadedTime': 2573, 'positionName': 'RIGHT', 'positionCoords': [832, 245], 'bid': 8.56}]",144460,1669833430845,sweetpotato,chickenfingers,9.92,8.56,-1.3599999999999994,sweetpotato,1622,1626,1627,True,u,146600,2140,1669833432985,2140,HRV,HRV_0212,2022-11-30 18:39:40
86,"[{'imgObject': {}, 'id': 'edamame', 'src': '/static/foodstim60/edamame.jpg', 'key': 'u', 'origWidth': 409, 'origHeight': 410, 'width': 409, 'height': 410, 'widthPercent': 0.45, 'rescaleHeight': False, 'trialN': 86, 'loaded': True, 'loadedTime': 2622, 'positionName': 'LEFT', 'positionCoords': [359, 245], 'bid': 7.35}, {'imgObject': {}, 'id': 'sweetpotato', 'src': '/static/foodstim60/sweetpotato.jpg', 'key': 'i', 'origWidth': 410, 'origHeight': 410, 'width': 410, 'height': 410, 'widthPercent': 0.45, 'rescaleHeight': False, 'trialN': 86, 'loaded': True, 'loadedTime': 2580, 'positionName': 'RIGHT', 'positionCoords': [832, 245], 'bid': 9.92}]",146601,1669833432985,edamame,sweetpotato,7.35,9.92,2.5700000000000003,sweetpotato,1200,1215,1214,True,i,148327,1726,1669833434712,1727,HRV,HRV_0212,2022-11-30 18:39:40
87,"[{'imgObject': {}, 'id': 'pear', 'src': '/static/foodstim60/pear.jpg', 'key': 'u', 'origWidth': 411, 'origHeight': 410, 'width': 411, 'height': 410, 'widthPercent': 0.45, 'rescaleHeight': False, 'trialN': 87, 'loaded': True, 'loadedTime': 2612, 'positionName': 'LEFT', 'positionCoords': [357, 245], 'bid': 6.2}, {'imgObject': {}, 'id': 'salmon', 'src': '/static/foodstim60/salmon.jpg', 'key': 'i', 'origWidth': 410, 'origHeight': 409, 'width': 410, 'height': 409, 'widthPercent': 0.45, 'rescaleHeight': False, 'trialN': 87, 'loaded': True, 'loadedTime': 2583, 'positionName': 'RIGHT', 'positionCoords': [832, 245.5], 'bid': 6.37}]",148328,1669833434713,pear,salmon,6.2,6.37,0.16999999999999993,pear,1535,1551,1551,True,u,150388,2060,1669833436773,2060,HRV,HRV_0212,2022-11-30 18:39:40
88,"[{'imgObject': {}, 'id': 'chickenfingers', 'src': '/static/foodstim60/chickenfingers.jpg', 'key': 'u', 'origWidth': 410, 'origHeight': 410, 'width': 410, 'height': 410, 'widthPercent': 0.45, 'rescaleHeight': False, 'trialN': 88, 'loaded': True, 'loadedTime': 2573, 'positionName': 'LEFT', 'positionCoords': [358, 245], 'bid': 8.56}, {'imgObject': {}, 'id': 'shreddedwheatwithmilk', 'src': '/static/foodstim60/shreddedwheatwithmilk.jpg', 'key': 'i', 'origWidth': 410, 'origHeight': 410, 'width': 410, 'height': 410, 'widthPercent': 0.45, 'rescaleHeight': False, 'trialN': 88, 'loaded': True, 'loadedTime': 2623, 'positionName': 'RIGHT', 'positionCoords': [832, 245], 'bid': 0.07}]",150389,1669833436773,chickenfingers,shreddedwheatwithmilk,8.56,0.07,-8.49,chickenfingers,1459,1475,1474,True,u,152376,1987,1669833438761,1988,HRV,HRV_0212,2022-11-30 18:39:40
89,"[{'imgObject': {}, 'id': 'seaweed', 'src': '/static/foodstim60/seaweed.jpg', 'key': 'u', 'origWidth': 410, 'origHeight': 410, 'width': 410, 'height': 410, 'widthPercent': 0.45, 'rescaleHeight': False, 'trialN': 89, 'loaded': True, 'loadedTime': 2624, 'positionName': 'LEFT', 'positionCoords': [358, 245], 'bid': 7.97}, {'imgObject': {}, 'id': 'mashed potato', 'src': '/static/foodstim60/mashed potato.jpg', 'key': 'i', 'origWidth': 409, 'origHeight': 409, 'width': 409, 'height': 409, 'widthPercent': 0.45, 'rescaleHeight': False, 'trialN': 89, 'loaded': True, 'loadedTime': 2586, 'positionName': 'RIGHT', 'positionCoords': [832, 245.5], 'bid': 8.85}]",152377,1669833438762,seaweed,mashed potato,7.97,8.85,0.8799999999999999,seaweed,1346,1358,1358,True,u,154244,1867,1669833440630,1868,HRV,HRV_0212,2022-11-30 18:39:40
90,"[{'imgObject': {}, 'id': 'banana', 'src': '/static/foodstim60/banana.jpg', 'key': 'u', 'origWidth': 410, 'origHeight': 410, 'width': 410, 'height': 410, 'widthPercent': 0.45, 'rescaleHeight': False, 'trialN': 90, 'loaded': True, 'loadedTime': 2606, 'positionName': 'LEFT', 'positionCoords': [358, 245], 'bid': 5.71}, {'imgObject': {}, 'id': 'bagel and cc', 'src': '/static/foodstim60/bagel and cc.jpg', 'key': 'i', 'origWidth': 410, 'origHeight': 410, 'width': 410, 'height': 410, 'widthPercent': 0.45, 'rescaleHeight': False, 'trialN': 90, 'loaded': True, 'loadedTime': 2587, 'positionName': 'RIGHT', 'positionCoords': [832, 245], 'bid': 8.75}]",157239,1669833443624,banana,bagel and cc,5.71,8.75,3.04,bagel and cc,1015,1031,1032,True,i,158780,1541,1669833445164,1540,HRV,HRV_0212,2022-11-30 18:39:40
91,"[{'imgObject': {}, 'id': 'bagel and cc', 'src': '/static/foodstim60/bagel and cc.jpg', 'key': 'u', 'origWidth': 410, 'origHeight': 410, 'width': 410, 'height': 410, 'widthPercent': 0.45, 'rescaleHeight': False, 'trialN': 91, 'loaded': True, 'loadedTime': 2587, 'positionName': 'LEFT', 'positionCoords': [358, 245], 'bid': 8.75}, {'imgObject': {}, 'id': 'chickenfingers', 'src': '/static/foodstim60/chickenfingers.jpg', 'key': 'i', 'origWidth': 410, 'origHeight': 410, 'width': 410, 'height': 410, 'widthPercent': 0.45, 'rescaleHeight': False, 'trialN': 91, 'loaded': True, 'loadedTime': 2573, 'positionName': 'RIGHT', 'positionCoords': [832, 245], 'bid': 8.56}]",158780,1669833445164,bagel and cc,chickenfingers,8.75,8.56,-0.1899999999999995,chickenfingers,755,771,770,True,i,160055,1275,1669833446441,1277,HRV,HRV_0212,2022-11-30 18:39:40
92,"[{'imgObject': {}, 'id': 'seaweed', 'src': '/static/foodstim60/seaweed.jpg', 'key': 'u', 'origWidth': 410, 'origHeight': 410, 'width': 410, 'height': 410, 'widthPercent': 0.45, 'rescaleHeight': False, 'trialN': 92, 'loaded': True, 'loadedTime': 2626, 'positionName': 'LEFT', 'positionCoords': [358, 245], 'bid': 7.97}, {'imgObject': {}, 'id': 'apple slices', 'src': '/static/foodstim60/apple slices.jpg', 'key': 'i', 'origWidth': 409, 'origHeight': 410, 'width': 409, 'height': 410, 'widthPercent': 0.45, 'rescaleHeight': False, 'trialN': 92, 'loaded': True, 'loadedTime': 2619, 'positionName': 'RIGHT', 'positionCoords': [832, 245], 'bid': 6.86}]",160055,1669833446441,seaweed,apple slices,7.97,6.86,-1.1099999999999994,seaweed,1121,1126,1128,True,u,161688,1633,1669833448073,1632,HRV,HRV_0212,2022-11-30 18:39:40
93,"[{'imgObject': {}, 'id': 'ice cream sundae 002', 'src': '/static/foodstim60/ice cream sundae 002.jpg', 'key': 'u', 'origWidth': 409, 'origHeight': 409, 'width': 409, 'height': 409, 'widthPercent': 0.45, 'rescaleHeight': False, 'trialN': 93, 'loaded': True, 'loadedTime': 2623, 'positionName': 'LEFT', 'positionCoords': [359, 245.5], 'bid': 3.44}, {'imgObject': {}, 'id': 'froot loops w milk', 'src': '/static/foodstim60/froot loops w milk.jpg', 'key': 'i', 'origWidth': 410, 'origHeight': 410, 'width': 410, 'height': 410, 'widthPercent': 0.45, 'rescaleHeight': False, 'trialN': 93, 'loaded': True, 'loadedTime': 2564, 'positionName': 'RIGHT', 'positionCoords': [832, 245], 'bid': 0.03}]",161689,1669833448073,ice cream sundae 002,froot loops w milk,3.44,0.03,-3.41,ice cream sundae 002,1565,1582,1582,True,u,163772,2083,1669833450157,2084,HRV,HRV_0212,2022-11-30 18:39:40
94,"[{'imgObject': {}, 'id': 'chicken nuggets2', 'src': '/static/foodstim60/chicken nuggets2.jpg', 'key': 'u', 'origWidth': 410, 'origHeight': 409, 'width': 410, 'height': 409, 'widthPercent': 0.45, 'rescaleHeight': False, 'trialN': 94, 'loaded': True, 'loadedTime': 2567, 'positionName': 'LEFT', 'positionCoords': [358, 245.5], 'bid': 7.5}, {'imgObject': {}, 'id': 'eggsalad', 'src': '/static/foodstim60/eggsalad.jpg', 'key': 'i', 'origWidth': 410, 'origHeight': 409, 'width': 410, 'height': 409, 'widthPercent': 0.45, 'rescaleHeight': False, 'trialN': 94, 'loaded': True, 'loadedTime': 2592, 'positionName': 'RIGHT', 'positionCoords': [832, 245.5], 'bid': 7.66}]",163773,1669833450158,chicken nuggets2,eggsalad,7.5,7.66,0.16000000000000014,chicken nuggets2,1184,1202,1202,True,u,165484,1711,1669833451868,1710,HRV,HRV_0212,2022-11-30 18:39:40
95,"[{'imgObject': {}, 'id': 'bagel and cc', 'src': '/static/foodstim60/bagel and cc.jpg', 'key': 'u', 'origWidth': 410, 'origHeight': 410, 'width': 410, 'height': 410, 'widthPercent': 0.45, 'rescaleHeight': False, 'trialN': 95, 'loaded': True, 'loadedTime': 2587, 'positionName': 'LEFT', 'positionCoords': [358, 245], 'bid': 8.75}, {'imgObject': {}, 'id': 'cherry tomato', 'src': '/static/foodstim60/cherry tomato.jpg', 'key': 'i', 'origWidth': 410, 'origHeight': 410, 'width': 410, 'height': 410, 'widthPercent': 0.45, 'rescaleHeight': False, 'trialN': 95, 'loaded': True, 'loadedTime': 2610, 'positionName': 'RIGHT', 'positionCoords': [832, 245], 'bid': 9.95}]",165485,1669833451869,bagel and cc,cherry tomato,8.75,9.95,1.1999999999999993,bagel and cc,847,858,857,True,u,166854,1369,1669833453238,1369,HRV,HRV_0212,2022-11-30 18:39:40
96,"[{'imgObject': {}, 'id': 'tacos', 'src': '/static/foodstim60/tacos.jpg', 'key': 'u', 'origWidth': 411, 'origHeight': 411, 'width': 411, 'height': 411, 'widthPercent': 0.45, 'rescaleHeight': False, 'trialN': 96, 'loaded': True, 'loadedTime': 2614, 'positionName': 'LEFT', 'positionCoords': [357, 244.5], 'bid': 7.36}, {'imgObject': {}, 'id': 'fruitsalad', 'src': '/static/foodstim60/fruitsalad.jpg', 'key': 'i', 'origWidth': 410, 'origHeight': 410, 'width': 410, 'height': 410, 'widthPercent': 0.45, 'rescaleHeight': False, 'trialN': 96, 'loaded': True, 'loadedTime': 2595, 'positionName': 'RIGHT', 'positionCoords': [832, 245], 'bid': 9.95}]",166854,1669833453238,tacos,fruitsalad,7.36,9.95,2.589999999999999,fruitsalad,993,1009,1009,True,i,168378,1524,1669833454762,1524,HRV,HRV_0212,2022-11-30 18:39:40
97,"[{'imgObject': {}, 'id': 'granola w milk', 'src': '/static/foodstim60/granola w milk.jpg', 'key': 'u', 'origWidth': 410, 'origHeight': 410, 'width': 410, 'height': 410, 'widthPercent': 0.45, 'rescaleHeight': False, 'trialN': 97, 'loaded': True, 'loadedTime': 2617, 'positionName': 'LEFT', 'positionCoords': [358, 245], 'bid': 0.07}, {'imgObject': {}, 'id': 'avocado', 'src': '/static/foodstim60/avocado.jpg', 'key': 'i', 'origWidth': 409, 'origHeight': 409, 'width': 409, 'height': 409, 'widthPercent': 0.45, 'rescaleHeight': False, 'trialN': 97, 'loaded': True, 'loadedTime': 2605, 'positionName': 'RIGHT', 'positionCoords': [832, 245.5], 'bid': 6.1000000000000005}]",168378,1669833454762,granola w milk,avocado,0.07,6.1000000000000005,6.03,avocado,907,924,922,True,i,169811,1433,1669833456196,1434,HRV,HRV_0212,2022-11-30 18:39:40
98,"[{'imgObject': {}, 'id': 'Grapes', 'src': '/static/foodstim60/Grapes.jpg', 'key': 'u', 'origWidth': 411, 'origHeight': 411, 'width': 411, 'height': 411, 'widthPercent': 0.45, 'rescaleHeight': False, 'trialN': 98, 'loaded': True, 'loadedTime': 2597, 'positionName': 'LEFT', 'positionCoords': [357, 244.5], 'bid': 6.94}, {'imgObject': {}, 'id': 'granola w milk', 'src': '/static/foodstim60/granola w milk.jpg', 'key': 'i', 'origWidth': 410, 'origHeight': 410, 'width': 410, 'height': 410, 'widthPercent': 0.45, 'rescaleHeight': False, 'trialN': 98, 'loaded': True, 'loadedTime': 2617, 'positionName': 'RIGHT', 'positionCoords': [832, 245], 'bid': 0.07}]",169811,1669833456196,Grapes,granola w milk,6.94,0.07,-6.87,Grapes,724,731,730,True,u,171042,1231,1669833457427,1231,HRV,HRV_0212,2022-11-30 18:39:40
99,"[{'imgObject': {}, 'id': 'pear', 'src': '/static/foodstim60/pear.jpg', 'key': 'u', 'origWidth': 411, 'origHeight': 410, 'width': 411, 'height': 410, 'widthPercent': 0.45, 'rescaleHeight': False, 'trialN': 99, 'loaded': True, 'loadedTime': 2612, 'positionName': 'LEFT', 'positionCoords': [357, 245], 'bid': 6.2}, {'imgObject': {}, 'id': 'apple slices', 'src': '/static/foodstim60/apple slices.jpg', 'key': 'i', 'origWidth': 409, 'origHeight': 410, 'width': 409, 'height': 410, 'widthPercent': 0.45, 'rescaleHeight': False, 'trialN': 99, 'loaded': True, 'loadedTime': 2619, 'positionName': 'RIGHT', 'positionCoords': [832, 245], 'bid': 6.86}]",171042,1669833457427,pear,apple slices,6.2,6.86,0.6600000000000001,pear,977,981,981,True,u,172533,1491,1669833458918,1491,HRV,HRV_0212,2022-11-30 18:39:40
100,"[{'imgObject': {}, 'id': 'baked potato', 'src': '/static/foodstim60/baked potato.jpg', 'key': 'u', 'origWidth': 409, 'origHeight': 410, 'width': 409, 'height': 410, 'widthPercent': 0.45, 'rescaleHeight': False, 'trialN': 100, 'loaded': True, 'loadedTime': 2578, 'positionName': 'LEFT', 'positionCoords': [359, 245], 'bid': 9.91}, {'imgObject': {}, 'id': 'salad w chicken', 'src': '/static/foodstim60/salad w chicken.jpg', 'key': 'i', 'origWidth': 411, 'origHeight': 411, 'width': 411, 'height': 411, 'widthPercent': 0.45, 'rescaleHeight': False, 'trialN': 100, 'loaded': True, 'loadedTime': 2557, 'positionName': 'RIGHT', 'positionCoords': [832, 244.5], 'bid': 7.26}]",172533,1669833458918,baked potato,salad w chicken,9.91,7.26,-2.6500000000000004,baked potato,908,924,924,True,u,173965,1432,1669833460350,1432,HRV,HRV_0212,2022-11-30 18:39:40
101,"[{'imgObject': {}, 'id': 'popsicles', 'src': '/static/foodstim60/popsicles.jpg', 'key': 'u', 'origWidth': 410, 'origHeight': 410, 'width': 410, 'height': 410, 'widthPercent': 0.45, 'rescaleHeight': False, 'trialN': 101, 'loaded': True, 'loadedTime': 2584, 'positionName': 'LEFT', 'positionCoords': [358, 245], 'bid': 3.81}, {'imgObject': {}, 'id': 'mac & cheese', 'src': '/static/foodstim60/mac & cheese.jpg', 'key': 'i', 'origWidth': 410, 'origHeight': 410, 'width': 410, 'height': 410, 'widthPercent': 0.45, 'rescaleHeight': False, 'trialN': 101, 'loaded': True, 'loadedTime': 2559, 'positionName': 'RIGHT', 'positionCoords': [832, 245], 'bid': 0.06}]",173965,1669833460350,popsicles,mac & cheese,3.81,0.06,-3.75,popsicles,883,890,890,True,u,175359,1394,1669833461744,1394,HRV,HRV_0212,2022-11-30 18:39:40
102,"[{'imgObject': {}, 'id': 'cantaloupe', 'src': '/static/foodstim60/cantaloupe.jpg', 'key': 'u', 'origWidth': 409, 'origHeight': 409, 'width': 409, 'height': 409, 'widthPercent': 0.45, 'rescaleHeight': False, 'trialN': 102, 'loaded': True, 'loadedTime': 2555, 'positionName': 'LEFT', 'positionCoords': [359, 245.5], 'bid': 8.94}, {'imgObject': {}, 'id': 'Tribe humus pita', 'src': '/static/foodstim60/Tribe humus pita.jpg', 'key': 'i', 'origWidth': 411, 'origHeight': 411, 'width': 411, 'height': 411, 'widthPercent': 0.45, 'rescaleHeight': False, 'trialN': 102, 'loaded': True, 'loadedTime': 2603, 'positionName': 'RIGHT', 'positionCoords': [832, 244.5], 'bid': 6.2}]",175360,1669833461744,cantaloupe,Tribe humus pita,8.94,6.2,-2.7399999999999993,cantaloupe,831,848,847,True,u,176711,1351,1669833463096,1352,HRV,HRV_0212,2022-11-30 18:39:40
103,"[{'imgObject': {}, 'id': 'salmon', 'src': '/static/foodstim60/salmon.jpg', 'key': 'u', 'origWidth': 410, 'origHeight': 409, 'width': 410, 'height': 409, 'widthPercent': 0.45, 'rescaleHeight': False, 'trialN': 103, 'loaded': True, 'loadedTime': 2583, 'positionName': 'LEFT', 'positionCoords': [358, 245.5], 'bid': 6.37}, {'imgObject': {}, 'id': 'Grapes', 'src': '/static/foodstim60/Grapes.jpg', 'key': 'i', 'origWidth': 411, 'origHeight': 411, 'width': 411, 'height': 411, 'widthPercent': 0.45, 'rescaleHeight': False, 'trialN': 103, 'loaded': True, 'loadedTime': 2597, 'positionName': 'RIGHT', 'positionCoords': [832, 244.5], 'bid': 6.94}]",176711,1669833463096,salmon,Grapes,6.37,6.94,0.5700000000000003,Grapes,1012,1025,1025,True,i,178247,1536,1669833464632,1536,HRV,HRV_0212,2022-11-30 18:39:40
104,"[{'imgObject': {}, 'id': 'roastedpotatoes', 'src': '/static/foodstim60/roastedpotatoes.jpg', 'key': 'u', 'origWidth': 409, 'origHeight': 410, 'width': 409, 'height': 410, 'widthPercent': 0.45, 'rescaleHeight': False, 'trialN': 104, 'loaded': True, 'loadedTime': 2599, 'positionName': 'LEFT', 'positionCoords': [359, 245], 'bid': 9.87}, {'imgObject': {}, 'id': 'turkeysandwich', 'src': '/static/foodstim60/turkeysandwich.jpg', 'key': 'i', 'origWidth': 409, 'origHeight': 409, 'width': 409, 'height': 409, 'widthPercent': 0.45, 'rescaleHeight': False, 'trialN': 104, 'loaded': True, 'loadedTime': 2554, 'positionName': 'RIGHT', 'positionCoords': [832, 245.5], 'bid': 10}]",178248,1669833464632,roastedpotatoes,turkeysandwich,9.87,10.0,0.13000000000000078,roastedpotatoes,1350,1358,1358,True,u,180114,1866,1669833466499,1867,HRV,HRV_0212,2022-11-30 18:39:40
105,"[{'imgObject': {}, 'id': 'lox', 'src': '/static/foodstim60/lox.jpg', 'key': 'u', 'origWidth': 410, 'origHeight': 411, 'width': 410, 'height': 411, 'widthPercent': 0.45, 'rescaleHeight': False, 'trialN': 105, 'loaded': True, 'loadedTime': 2570, 'positionName': 'LEFT', 'positionCoords': [358, 244.5], 'bid': 8.66}, {'imgObject': {}, 'id': 'turkey sandwich', 'src': '/static/foodstim60/turkey sandwich.jpg', 'key': 'i', 'origWidth': 409, 'origHeight': 409, 'width': 409, 'height': 409, 'widthPercent': 0.45, 'rescaleHeight': False, 'trialN': 105, 'loaded': True, 'loadedTime': 2574, 'positionName': 'RIGHT', 'positionCoords': [832, 245.5], 'bid': 8.63}]",180114,1669833466500,lox,turkey sandwich,8.66,8.63,-0.02999999999999936,turkey sandwich,1359,1364,1365,True,i,181984,1870,1669833468369,1869,HRV,HRV_0212,2022-11-30 18:39:40
106,"[{'imgObject': {}, 'id': 'banana', 'src': '/static/foodstim60/banana.jpg', 'key': 'u', 'origWidth': 410, 'origHeight': 410, 'width': 410, 'height': 410, 'widthPercent': 0.45, 'rescaleHeight': False, 'trialN': 106, 'loaded': True, 'loadedTime': 2606, 'positionName': 'LEFT', 'positionCoords': [358, 245], 'bid': 5.71}, {'imgObject': {}, 'id': 'avocado', 'src': '/static/foodstim60/avocado.jpg', 'key': 'i', 'origWidth': 409, 'origHeight': 409, 'width': 409, 'height': 409, 'widthPercent': 0.45, 'rescaleHeight': False, 'trialN': 106, 'loaded': True, 'loadedTime': 2605, 'positionName': 'RIGHT', 'positionCoords': [832, 245.5], 'bid': 6.1000000000000005}]",181984,1669833468369,banana,avocado,5.71,6.1000000000000005,0.39000000000000057,avocado,770,783,783,True,i,183275,1291,1669833469660,1291,HRV,HRV_0212,2022-11-30 18:39:40
107,"[{'imgObject': {}, 'id': 'fruitsalad', 'src': '/static/foodstim60/fruitsalad.jpg', 'key': 'u', 'origWidth': 410, 'origHeight': 410, 'width': 410, 'height': 410, 'widthPercent': 0.45, 'rescaleHeight': False, 'trialN': 107, 'loaded': True, 'loadedTime': 2595, 'positionName': 'LEFT', 'positionCoords': [358, 245], 'bid': 9.95}, {'imgObject': {}, 'id': 'turkeysandwich', 'src': '/static/foodstim60/turkeysandwich.jpg', 'key': 'i', 'origWidth': 409, 'origHeight': 409, 'width': 409, 'height': 409, 'widthPercent': 0.45, 'rescaleHeight': False, 'trialN': 107, 'loaded': True, 'loadedTime': 2554, 'positionName': 'RIGHT', 'positionCoords': [832, 245.5], 'bid': 10}]",183275,1669833469660,fruitsalad,turkeysandwich,9.95,10.0,0.05000000000000071,turkeysandwich,807,811,811,True,i,184599,1324,1669833470983,1323,HRV,HRV_0212,2022-11-30 18:39:40
108,"[{'imgObject': {}, 'id': 'strawberries', 'src': '/static/foodstim60/strawberries.jpg', 'key': 'u', 'origWidth': 410, 'origHeight': 410, 'width': 410, 'height': 410, 'widthPercent': 0.45, 'rescaleHeight': False, 'trialN': 108, 'loaded': True, 'loadedTime': 2600, 'positionName': 'LEFT', 'positionCoords': [358, 245], 'bid': 8.71}, {'imgObject': {}, 'id': 'sweetpotato', 'src': '/static/foodstim60/sweetpotato.jpg', 'key': 'i', 'origWidth': 410, 'origHeight': 410, 'width': 410, 'height': 410, 'widthPercent': 0.45, 'rescaleHeight': False, 'trialN': 108, 'loaded': True, 'loadedTime': 2580, 'positionName': 'RIGHT', 'positionCoords': [832, 245], 'bid': 9.92}]",184599,1669833470984,strawberries,sweetpotato,8.71,9.92,1.209999999999999,sweetpotato,795,800,799,True,i,185900,1301,1669833472284,1300,HRV,HRV_0212,2022-11-30 18:39:40
109,"[{'imgObject': {}, 'id': 'popsicles', 'src': '/static/foodstim60/popsicles.jpg', 'key': 'u', 'origWidth': 410, 'origHeight': 410, 'width': 410, 'height': 410, 'widthPercent': 0.45, 'rescaleHeight': False, 'trialN': 109, 'loaded': True, 'loadedTime': 2584, 'positionName': 'LEFT', 'positionCoords': [358, 245], 'bid': 3.81}, {'imgObject': {}, 'id': 'ice cream sundae 002', 'src': '/static/foodstim60/ice cream sundae 002.jpg', 'key': 'i', 'origWidth': 409, 'origHeight': 409, 'width': 409, 'height': 409, 'widthPercent': 0.45, 'rescaleHeight': False, 'trialN': 109, 'loaded': True, 'loadedTime': 2623, 'positionName': 'RIGHT', 'positionCoords': [832, 245.5], 'bid': 3.44}]",185900,1669833472284,popsicles,ice cream sundae 002,3.81,3.44,-0.3700000000000001,ice cream sundae 002,994,1004,1003,True,i,187403,1503,1669833473789,1505,HRV,HRV_0212,2022-11-30 18:39:40
110,"[{'imgObject': {}, 'id': 'cocktailshrimp', 'src': '/static/foodstim60/cocktailshrimp.jpg', 'key': 'u', 'origWidth': 410, 'origHeight': 410, 'width': 410, 'height': 410, 'widthPercent': 0.45, 'rescaleHeight': False, 'trialN': 110, 'loaded': True, 'loadedTime': 2581, 'positionName': 'LEFT', 'positionCoords': [358, 245], 'bid': 8.98}, {'imgObject': {}, 'id': 'salmon', 'src': '/static/foodstim60/salmon.jpg', 'key': 'i', 'origWidth': 410, 'origHeight': 409, 'width': 410, 'height': 409, 'widthPercent': 0.45, 'rescaleHeight': False, 'trialN': 110, 'loaded': True, 'loadedTime': 2583, 'positionName': 'RIGHT', 'positionCoords': [832, 245.5], 'bid': 6.37}]",187404,1669833473789,cocktailshrimp,salmon,8.98,6.37,-2.6100000000000003,cocktailshrimp,1475,1483,1483,True,u,189396,1992,1669833475781,1992,HRV,HRV_0212,2022-11-30 18:39:40
111,"[{'imgObject': {}, 'id': 'shreddedwheatwithmilk', 'src': '/static/foodstim60/shreddedwheatwithmilk.jpg', 'key': 'u', 'origWidth': 410, 'origHeight': 410, 'width': 410, 'height': 410, 'widthPercent': 0.45, 'rescaleHeight': False, 'trialN': 111, 'loaded': True, 'loadedTime': 2624, 'positionName': 'LEFT', 'positionCoords': [358, 245], 'bid': 0.07}, {'imgObject': {}, 'id': 'raisin bran w milk', 'src': '/static/foodstim60/raisin bran w milk.jpg', 'key': 'i', 'origWidth': 411, 'origHeight': 411, 'width': 411, 'height': 411, 'widthPercent': 0.45, 'rescaleHeight': False, 'trialN': 111, 'loaded': True, 'loadedTime': 2601, 'positionName': 'RIGHT', 'positionCoords': [832, 244.5], 'bid': 0}]",189396,1669833475781,shreddedwheatwithmilk,raisin bran w milk,0.07,0.0,-0.07,raisin bran w milk,1108,1115,1115,True,i,191017,1621,1669833477401,1620,HRV,HRV_0212,2022-11-30 18:39:40
112,"[{'imgObject': {}, 'id': 'banana', 'src': '/static/foodstim60/banana.jpg', 'key': 'u', 'origWidth': 410, 'origHeight': 410, 'width': 410, 'height': 410, 'widthPercent': 0.45, 'rescaleHeight': False, 'trialN': 112, 'loaded': True, 'loadedTime': 2606, 'positionName': 'LEFT', 'positionCoords': [358, 245], 'bid': 5.71}, {'imgObject': {}, 'id': 'cheerios', 'src': '/static/foodstim60/cheerios.jpg', 'key': 'i', 'origWidth': 409, 'origHeight': 410, 'width': 409, 'height': 410, 'widthPercent': 0.45, 'rescaleHeight': False, 'trialN': 112, 'loaded': True, 'loadedTime': 2562, 'positionName': 'RIGHT', 'positionCoords': [832, 245], 'bid': 0.06}]",191017,1669833477401,banana,cheerios,5.71,0.06,-5.65,banana,877,894,894,True,u,192414,1397,1669833478799,1398,HRV,HRV_0212,2022-11-30 18:39:40
113,"[{'imgObject': {}, 'id': 'yogurt no spoon', 'src': '/static/foodstim60/yogurt no spoon.jpg', 'key': 'u', 'origWidth': 411, 'origHeight': 410, 'width': 411, 'height': 410, 'widthPercent': 0.45, 'rescaleHeight': False, 'trialN': 113, 'loaded': True, 'loadedTime': 2607, 'positionName': 'LEFT', 'positionCoords': [357, 245], 'bid': 0.02}, {'imgObject': {}, 'id': 'blackbeanswithrice', 'src': '/static/foodstim60/blackbeanswithrice.jpg', 'key': 'i', 'origWidth': 410, 'origHeight': 410, 'width': 410, 'height': 410, 'widthPercent': 0.45, 'rescaleHeight': False, 'trialN': 113, 'loaded': True, 'loadedTime': 2616, 'positionName': 'RIGHT', 'positionCoords': [832, 245], 'bid': 0.08}]",192414,1669833478799,yogurt no spoon,blackbeanswithrice,0.02,0.08,0.06,blackbeanswithrice,1449,1464,1465,True,i,194386,1972,1669833480771,1972,HRV,HRV_0212,2022-11-30 18:39:40
114,"[{'imgObject': {}, 'id': 'cocktailshrimp', 'src': '/static/foodstim60/cocktailshrimp.jpg', 'key': 'u', 'origWidth': 410, 'origHeight': 410, 'width': 410, 'height': 410, 'widthPercent': 0.45, 'rescaleHeight': False, 'trialN': 114, 'loaded': True, 'loadedTime': 2581, 'positionName': 'LEFT', 'positionCoords': [358, 245], 'bid': 8.98}, {'imgObject': {}, 'id': 'orange slices', 'src': '/static/foodstim60/orange slices.jpg', 'key': 'i', 'origWidth': 409, 'origHeight': 410, 'width': 409, 'height': 410, 'widthPercent': 0.45, 'rescaleHeight': False, 'trialN': 114, 'loaded': True, 'loadedTime': 2585, 'positionName': 'RIGHT', 'positionCoords': [832, 245], 'bid': 8.6}]",194386,1669833480771,cocktailshrimp,orange slices,8.98,8.6,-0.3800000000000008,orange slices,883,900,900,True,i,195787,1401,1669833482172,1401,HRV,HRV_0212,2022-11-30 18:39:40
115,"[{'imgObject': {}, 'id': 'roastedpotatoes', 'src': '/static/foodstim60/roastedpotatoes.jpg', 'key': 'u', 'origWidth': 409, 'origHeight': 410, 'width': 409, 'height': 410, 'widthPercent': 0.45, 'rescaleHeight': False, 'trialN': 115, 'loaded': True, 'loadedTime': 2599, 'positionName': 'LEFT', 'positionCoords': [359, 245], 'bid': 9.87}, {'imgObject': {}, 'id': 'lox', 'src': '/static/foodstim60/lox.jpg', 'key': 'i', 'origWidth': 410, 'origHeight': 411, 'width': 410, 'height': 411, 'widthPercent': 0.45, 'rescaleHeight': False, 'trialN': 115, 'loaded': True, 'loadedTime': 2570, 'positionName': 'RIGHT', 'positionCoords': [832, 244.5], 'bid': 8.66}]",195788,1669833482172,roastedpotatoes,lox,9.87,8.66,-1.209999999999999,roastedpotatoes,856,868,867,True,u,197158,1370,1669833483543,1371,HRV,HRV_0212,2022-11-30 18:39:40
116,"[{'imgObject': {}, 'id': 'cherries', 'src': '/static/foodstim60/cherries.jpg', 'key': 'u', 'origWidth': 410, 'origHeight': 411, 'width': 410, 'height': 411, 'widthPercent': 0.45, 'rescaleHeight': False, 'trialN': 116, 'loaded': True, 'loadedTime': 2568, 'positionName': 'LEFT', 'positionCoords': [358, 244.5], 'bid': 8.41}, {'imgObject': {}, 'id': 'sushi w_condiments', 'src': '/static/foodstim60/sushi w_condiments.jpg', 'key': 'i', 'origWidth': 410, 'origHeight': 410, 'width': 410, 'height': 410, 'widthPercent': 0.45, 'rescaleHeight': False, 'trialN': 116, 'loaded': True, 'loadedTime': 2563, 'positionName': 'RIGHT', 'positionCoords': [832, 245], 'bid': 8.38}]",197158,1669833483543,cherries,sushi w_condiments,8.41,8.38,-0.02999999999999936,cherries,783,793,793,True,u,198452,1294,1669833484837,1294,HRV,HRV_0212,2022-11-30 18:39:40
117,"[{'imgObject': {}, 'id': 'hashbrowns', 'src': '/static/foodstim60/hashbrowns.jpg', 'key': 'u', 'origWidth': 411, 'origHeight': 410, 'width': 411, 'height': 410, 'widthPercent': 0.45, 'rescaleHeight': False, 'trialN': 117, 'loaded': True, 'loadedTime': 2561, 'positionName': 'LEFT', 'positionCoords': [357, 245], 'bid': 0.07}, {'imgObject': {}, 'id': 'cheerios', 'src': '/static/foodstim60/cheerios.jpg', 'key': 'i', 'origWidth': 409, 'origHeight': 410, 'width': 409, 'height': 410, 'widthPercent': 0.45, 'rescaleHeight': False, 'trialN': 117, 'loaded': True, 'loadedTime': 2562, 'positionName': 'RIGHT', 'positionCoords': [832, 245], 'bid': 0.06}]",198453,1669833484838,hashbrowns,cheerios,0.07,0.06,-0.010000000000000009,hashbrowns,1098,1113,1113,True,u,200072,1619,1669833486456,1618,HRV,HRV_0212,2022-11-30 18:39:40
118,"[{'imgObject': {}, 'id': 'tacos', 'src': '/static/foodstim60/tacos.jpg', 'key': 'u', 'origWidth': 411, 'origHeight': 411, 'width': 411, 'height': 411, 'widthPercent': 0.45, 'rescaleHeight': False, 'trialN': 118, 'loaded': True, 'loadedTime': 2614, 'positionName': 'LEFT', 'positionCoords': [357, 244.5], 'bid': 7.36}, {'imgObject': {}, 'id': 'edamame', 'src': '/static/foodstim60/edamame.jpg', 'key': 'i', 'origWidth': 409, 'origHeight': 410, 'width': 409, 'height': 410, 'widthPercent': 0.45, 'rescaleHeight': False, 'trialN': 118, 'loaded': True, 'loadedTime': 2622, 'positionName': 'RIGHT', 'positionCoords': [832, 245], 'bid': 7.35}]",200072,1669833486456,tacos,edamame,7.36,7.35,-0.010000000000000675,tacos,994,1000,999,True,u,201584,1512,1669833487968,1512,HRV,HRV_0212,2022-11-30 18:39:40
119,"[{'imgObject': {}, 'id': 'olives', 'src': '/static/foodstim60/olives.jpg', 'key': 'u', 'origWidth': 410, 'origHeight': 410, 'width': 410, 'height': 410, 'widthPercent': 0.45, 'rescaleHeight': False, 'trialN': 119, 'loaded': True, 'loadedTime': 2617, 'positionName': 'LEFT', 'positionCoords': [358, 245], 'bid': 0.03}, {'imgObject': {}, 'id': 'seaweed', 'src': '/static/foodstim60/seaweed.jpg', 'key': 'i', 'origWidth': 410, 'origHeight': 410, 'width': 410, 'height': 410, 'widthPercent': 0.45, 'rescaleHeight': False, 'trialN': 119, 'loaded': True, 'loadedTime': 2626, 'positionName': 'RIGHT', 'positionCoords': [832, 245], 'bid': 7.97}]",201584,1669833487969,olives,seaweed,0.03,7.97,7.9399999999999995,seaweed,810,812,813,True,i,202905,1321,1669833489290,1321,HRV,HRV_0212,2022-11-30 18:39:40
