trialN,stimuli,question,trialStartTime,trialStartTime_UNIX,stimulus1,rt,receivedResponse,rating,trialEndTime,trialDuration,stimulus1Loaded,exp,subjectId,date
0,"[{'imgObject': {}, 'id': 'bagel plain', 'src': '/static/foodstim60/bagel plain.jpg', 'key': 'NaN', 'origWidth': 410, 'origHeight': 410, 'width': 410, 'height': 410, 'widthPercent': 0.8, 'rescaleHeight': True, 'trialN': 0, 'loaded': True, 'loadedTime': 1849, 'positionName': 'CENTER', 'positionCoords': [595, 245]}]",Rate how much you want to eat this food from 0 (least) to 10 (most).,1908,1669833130405,bagel plain,3812,True,8.35,5720,3812,True,HRV,HRV_0212,2022-11-30 18:34:05
1,"[{'imgObject': {}, 'id': 'raisin bran w milk', 'src': '/static/foodstim60/raisin bran w milk.jpg', 'key': 'NaN', 'origWidth': 411, 'origHeight': 411, 'width': 411, 'height': 411, 'widthPercent': 0.8, 'rescaleHeight': True, 'trialN': 1, 'loaded': True, 'loadedTime': 1850, 'positionName': 'CENTER', 'positionCoords': [594.5, 244.5]}]",Rate how much you want to eat this food from 0 (least) to 10 (most).,5736,1669833134232,raisin bran w milk,3312,True,0.0,9048,3312,True,HRV,HRV_0212,2022-11-30 18:34:05
2,"[{'imgObject': {}, 'id': 'avocado', 'src': '/static/foodstim60/avocado.jpg', 'key': 'NaN', 'origWidth': 409, 'origHeight': 409, 'width': 409, 'height': 409, 'widthPercent': 0.8, 'rescaleHeight': True, 'trialN': 2, 'loaded': True, 'loadedTime': 1851, 'positionName': 'CENTER', 'positionCoords': [595.5, 245.5]}]",Rate how much you want to eat this food from 0 (least) to 10 (most).,9056,1669833137552,avocado,1290,True,6.1000000000000005,10346,1290,True,HRV,HRV_0212,2022-11-30 18:34:05
3,"[{'imgObject': {}, 'id': 'strawberries', 'src': '/static/foodstim60/strawberries.jpg', 'key': 'NaN', 'origWidth': 410, 'origHeight': 410, 'width': 410, 'height': 410, 'widthPercent': 0.8, 'rescaleHeight': True, 'trialN': 3, 'loaded': True, 'loadedTime': 1852, 'positionName': 'CENTER', 'positionCoords': [595, 245]}]",Rate how much you want to eat this food from 0 (least) to 10 (most).,10362,1669833138859,strawberries,1374,True,8.71,11736,1374,True,HRV,HRV_0212,2022-11-30 18:34:05
4,"[{'imgObject': {}, 'id': 'grilled chicken strips', 'src': '/static/foodstim60/grilled chicken strips.jpg', 'key': 'NaN', 'origWidth': 410, 'origHeight': 411, 'width': 410, 'height': 411, 'widthPercent': 0.8, 'rescaleHeight': True, 'trialN': 4, 'loaded': True, 'loadedTime': 1853, 'positionName': 'CENTER', 'positionCoords': [595, 244.5]}]",Rate how much you want to eat this food from 0 (least) to 10 (most).,11739,1669833140236,grilled chicken strips,1637,True,8.47,13376,1637,True,HRV,HRV_0212,2022-11-30 18:34:05
5,"[{'imgObject': {}, 'id': 'cantaloupe', 'src': '/static/foodstim60/cantaloupe.jpg', 'key': 'NaN', 'origWidth': 409, 'origHeight': 409, 'width': 409, 'height': 409, 'widthPercent': 0.8, 'rescaleHeight': True, 'trialN': 5, 'loaded': True, 'loadedTime': 1854, 'positionName': 'CENTER', 'positionCoords': [595.5, 245.5]}]",Rate how much you want to eat this food from 0 (least) to 10 (most).,13383,1669833141880,cantaloupe,2181,True,8.94,15564,2181,True,HRV,HRV_0212,2022-11-30 18:34:05
6,"[{'imgObject': {}, 'id': 'banana', 'src': '/static/foodstim60/banana.jpg', 'key': 'NaN', 'origWidth': 410, 'origHeight': 410, 'width': 410, 'height': 410, 'widthPercent': 0.8, 'rescaleHeight': True, 'trialN': 6, 'loaded': True, 'loadedTime': 1855, 'positionName': 'CENTER', 'positionCoords': [595, 245]}]",Rate how much you want to eat this food from 0 (least) to 10 (most).,15570,1669833144066,banana,1572,True,5.71,17142,1572,True,HRV,HRV_0212,2022-11-30 18:34:05
7,"[{'imgObject': {}, 'id': 'edamame', 'src': '/static/foodstim60/edamame.jpg', 'key': 'NaN', 'origWidth': 409, 'origHeight': 410, 'width': 409, 'height': 410, 'widthPercent': 0.8, 'rescaleHeight': True, 'trialN': 7, 'loaded': True, 'loadedTime': 1856, 'positionName': 'CENTER', 'positionCoords': [595.5, 245]}]",Rate how much you want to eat this food from 0 (least) to 10 (most).,17160,1669833145656,edamame,1372,True,7.3500000000000005,18532,1372,True,HRV,HRV_0212,2022-11-30 18:34:05
8,"[{'imgObject': {}, 'id': 'cheerios', 'src': '/static/foodstim60/cheerios.jpg', 'key': 'NaN', 'origWidth': 409, 'origHeight': 410, 'width': 409, 'height': 410, 'widthPercent': 0.8, 'rescaleHeight': True, 'trialN': 8, 'loaded': True, 'loadedTime': 1857, 'positionName': 'CENTER', 'positionCoords': [595.5, 245]}]",Rate how much you want to eat this food from 0 (least) to 10 (most).,18545,1669833147042,cheerios,1566,True,0.06,20111,1566,True,HRV,HRV_0212,2022-11-30 18:34:05
9,"[{'imgObject': {}, 'id': 'Tribe humus pita', 'src': '/static/foodstim60/Tribe humus pita.jpg', 'key': 'NaN', 'origWidth': 411, 'origHeight': 411, 'width': 411, 'height': 411, 'widthPercent': 0.8, 'rescaleHeight': True, 'trialN': 9, 'loaded': True, 'loadedTime': 1858, 'positionName': 'CENTER', 'positionCoords': [594.5, 244.5]}]",Rate how much you want to eat this food from 0 (least) to 10 (most).,20113,1669833148610,Tribe humus pita,1373,True,6.2,21486,1373,True,HRV,HRV_0212,2022-11-30 18:34:05
10,"[{'imgObject': {}, 'id': 'shreddedwheatwithmilk', 'src': '/static/foodstim60/shreddedwheatwithmilk.jpg', 'key': 'NaN', 'origWidth': 410, 'origHeight': 410, 'width': 410, 'height': 410, 'widthPercent': 0.8, 'rescaleHeight': True, 'trialN': 10, 'loaded': True, 'loadedTime': 1859, 'positionName': 'CENTER', 'positionCoords': [595, 245]}]",Rate how much you want to eat this food from 0 (least) to 10 (most).,21495,1669833149992,shreddedwheatwithmilk,2084,True,0.07,23579,2084,True,HRV,HRV_0212,2022-11-30 18:34:05
11,"[{'imgObject': {}, 'id': 'burrito', 'src': '/static/foodstim60/burrito.jpg', 'key': 'NaN', 'origWidth': 410, 'origHeight': 410, 'width': 410, 'height': 410, 'widthPercent': 0.8, 'rescaleHeight': True, 'trialN': 11, 'loaded': True, 'loadedTime': 1860, 'positionName': 'CENTER', 'positionCoords': [595, 245]}]",Rate how much you want to eat this food from 0 (least) to 10 (most).,23589,1669833152086,burrito,1631,True,7.36,25220,1631,True,HRV,HRV_0212,2022-11-30 18:34:05
12,"[{'imgObject': {}, 'id': 'corn cob', 'src': '/static/foodstim60/corn cob.jpg', 'key': 'NaN', 'origWidth': 411, 'origHeight': 411, 'width': 411, 'height': 411, 'widthPercent': 0.8, 'rescaleHeight': True, 'trialN': 12, 'loaded': True, 'loadedTime': 1861, 'positionName': 'CENTER', 'positionCoords': [594.5, 244.5]}]",Rate how much you want to eat this food from 0 (least) to 10 (most).,25230,1669833153726,corn cob,1115,True,7.8100000000000005,26345,1115,True,HRV,HRV_0212,2022-11-30 18:34:05
13,"[{'imgObject': {}, 'id': 'turkeysandwich', 'src': '/static/foodstim60/turkeysandwich.jpg', 'key': 'NaN', 'origWidth': 409, 'origHeight': 409, 'width': 409, 'height': 409, 'widthPercent': 0.8, 'rescaleHeight': True, 'trialN': 13, 'loaded': True, 'loadedTime': 1862, 'positionName': 'CENTER', 'positionCoords': [595.5, 245.5]}]",Rate how much you want to eat this food from 0 (least) to 10 (most).,26357,1669833154854,turkeysandwich,1535,True,10.0,27892,1535,True,HRV,HRV_0212,2022-11-30 18:34:05
14,"[{'imgObject': {}, 'id': 'roastedpotatoes', 'src': '/static/foodstim60/roastedpotatoes.jpg', 'key': 'NaN', 'origWidth': 409, 'origHeight': 410, 'width': 409, 'height': 410, 'widthPercent': 0.8, 'rescaleHeight': True, 'trialN': 14, 'loaded': True, 'loadedTime': 1863, 'positionName': 'CENTER', 'positionCoords': [595.5, 245]}]",Rate how much you want to eat this food from 0 (least) to 10 (most).,27906,1669833156402,roastedpotatoes,2986,True,9.870000000000001,30892,2986,True,HRV,HRV_0212,2022-11-30 18:34:05
15,"[{'imgObject': {}, 'id': 'kiwi', 'src': '/static/foodstim60/kiwi.jpg', 'key': 'NaN', 'origWidth': 410, 'origHeight': 410, 'width': 410, 'height': 410, 'widthPercent': 0.8, 'rescaleHeight': True, 'trialN': 15, 'loaded': True, 'loadedTime': 1864, 'positionName': 'CENTER', 'positionCoords': [595, 245]}]",Rate how much you want to eat this food from 0 (least) to 10 (most).,30907,1669833159404,kiwi,1391,True,7.75,32298,1391,True,HRV,HRV_0212,2022-11-30 18:34:05
16,"[{'imgObject': {}, 'id': 'chickenfingers', 'src': '/static/foodstim60/chickenfingers.jpg', 'key': 'NaN', 'origWidth': 410, 'origHeight': 410, 'width': 410, 'height': 410, 'widthPercent': 0.8, 'rescaleHeight': True, 'trialN': 16, 'loaded': True, 'loadedTime': 1865, 'positionName': 'CENTER', 'positionCoords': [595, 245]}]",Rate how much you want to eat this food from 0 (least) to 10 (most).,32313,1669833160809,chickenfingers,1251,True,8.56,33564,1251,True,HRV,HRV_0212,2022-11-30 18:34:05
17,"[{'imgObject': {}, 'id': 'popsicles', 'src': '/static/foodstim60/popsicles.jpg', 'key': 'NaN', 'origWidth': 410, 'origHeight': 410, 'width': 410, 'height': 410, 'widthPercent': 0.8, 'rescaleHeight': True, 'trialN': 17, 'loaded': True, 'loadedTime': 1865, 'positionName': 'CENTER', 'positionCoords': [595, 245]}]",Rate how much you want to eat this food from 0 (least) to 10 (most).,33569,1669833162066,popsicles,2729,True,3.81,36298,2729,True,HRV,HRV_0212,2022-11-30 18:34:05
18,"[{'imgObject': {}, 'id': 'pear', 'src': '/static/foodstim60/pear.jpg', 'key': 'NaN', 'origWidth': 411, 'origHeight': 410, 'width': 411, 'height': 410, 'widthPercent': 0.8, 'rescaleHeight': True, 'trialN': 18, 'loaded': True, 'loadedTime': 1866, 'positionName': 'CENTER', 'positionCoords': [594.5, 245]}]",Rate how much you want to eat this food from 0 (least) to 10 (most).,36313,1669833164810,pear,1454,True,6.2,37767,1454,True,HRV,HRV_0212,2022-11-30 18:34:05
19,"[{'imgObject': {}, 'id': 'salad w chicken', 'src': '/static/foodstim60/salad w chicken.jpg', 'key': 'NaN', 'origWidth': 411, 'origHeight': 411, 'width': 411, 'height': 411, 'widthPercent': 0.8, 'rescaleHeight': True, 'trialN': 19, 'loaded': True, 'loadedTime': 1868, 'positionName': 'CENTER', 'positionCoords': [594.5, 244.5]}]",Rate how much you want to eat this food from 0 (least) to 10 (most).,37782,1669833166278,salad w chicken,1236,True,7.26,39018,1236,True,HRV,HRV_0212,2022-11-30 18:34:05
20,"[{'imgObject': {}, 'id': 'rigatoni', 'src': '/static/foodstim60/rigatoni.jpg', 'key': 'NaN', 'origWidth': 411, 'origHeight': 411, 'width': 411, 'height': 411, 'widthPercent': 0.8, 'rescaleHeight': True, 'trialN': 20, 'loaded': True, 'loadedTime': 1869, 'positionName': 'CENTER', 'positionCoords': [594.5, 244.5]}]",Rate how much you want to eat this food from 0 (least) to 10 (most).,39033,1669833167530,rigatoni,1735,True,0.11,40768,1735,True,HRV,HRV_0212,2022-11-30 18:34:05
21,"[{'imgObject': {}, 'id': 'froot loops w milk', 'src': '/static/foodstim60/froot loops w milk.jpg', 'key': 'NaN', 'origWidth': 410, 'origHeight': 410, 'width': 410, 'height': 410, 'widthPercent': 0.8, 'rescaleHeight': True, 'trialN': 21, 'loaded': True, 'loadedTime': 1869, 'positionName': 'CENTER', 'positionCoords': [595, 245]}]",Rate how much you want to eat this food from 0 (least) to 10 (most).,40779,1669833169276,froot loops w milk,1347,True,0.03,42126,1347,True,HRV,HRV_0212,2022-11-30 18:34:05
22,"[{'imgObject': {}, 'id': 'Grapes', 'src': '/static/foodstim60/Grapes.jpg', 'key': 'NaN', 'origWidth': 411, 'origHeight': 411, 'width': 411, 'height': 411, 'widthPercent': 0.8, 'rescaleHeight': True, 'trialN': 22, 'loaded': True, 'loadedTime': 1871, 'positionName': 'CENTER', 'positionCoords': [594.5, 244.5]}]",Rate how much you want to eat this food from 0 (least) to 10 (most).,42132,1669833170628,Grapes,1229,True,6.94,43361,1229,True,HRV,HRV_0212,2022-11-30 18:34:05
23,"[{'imgObject': {}, 'id': 'seaweed', 'src': '/static/foodstim60/seaweed.jpg', 'key': 'NaN', 'origWidth': 410, 'origHeight': 410, 'width': 410, 'height': 410, 'widthPercent': 0.8, 'rescaleHeight': True, 'trialN': 23, 'loaded': True, 'loadedTime': 1871, 'positionName': 'CENTER', 'positionCoords': [595, 245]}]",Rate how much you want to eat this food from 0 (least) to 10 (most).,43370,1669833171867,seaweed,1053,True,7.97,44423,1053,True,HRV,HRV_0212,2022-11-30 18:34:05
24,"[{'imgObject': {}, 'id': 'olives', 'src': '/static/foodstim60/olives.jpg', 'key': 'NaN', 'origWidth': 410, 'origHeight': 410, 'width': 410, 'height': 410, 'widthPercent': 0.8, 'rescaleHeight': True, 'trialN': 24, 'loaded': True, 'loadedTime': 1873, 'positionName': 'CENTER', 'positionCoords': [595, 245]}]",Rate how much you want to eat this food from 0 (least) to 10 (most).,44438,1669833172934,olives,2079,True,0.03,46517,2079,True,HRV,HRV_0212,2022-11-30 18:34:05
25,"[{'imgObject': {}, 'id': 'raspberries', 'src': '/static/foodstim60/raspberries.jpg', 'key': 'NaN', 'origWidth': 411, 'origHeight': 411, 'width': 411, 'height': 411, 'widthPercent': 0.8, 'rescaleHeight': True, 'trialN': 25, 'loaded': True, 'loadedTime': 1874, 'positionName': 'CENTER', 'positionCoords': [594.5, 244.5]}]",Rate how much you want to eat this food from 0 (least) to 10 (most).,46526,1669833175021,raspberries,3194,True,8.23,49720,3194,True,HRV,HRV_0212,2022-11-30 18:34:05
26,"[{'imgObject': {}, 'id': 'sushi w_condiments', 'src': '/static/foodstim60/sushi w_condiments.jpg', 'key': 'NaN', 'origWidth': 410, 'origHeight': 410, 'width': 410, 'height': 410, 'widthPercent': 0.8, 'rescaleHeight': True, 'trialN': 26, 'loaded': True, 'loadedTime': 1874, 'positionName': 'CENTER', 'positionCoords': [595, 245]}]",Rate how much you want to eat this food from 0 (least) to 10 (most).,49727,1669833178224,sushi w_condiments,1291,True,8.38,51018,1291,True,HRV,HRV_0212,2022-11-30 18:34:05
27,"[{'imgObject': {}, 'id': 'turkey sandwich', 'src': '/static/foodstim60/turkey sandwich.jpg', 'key': 'NaN', 'origWidth': 409, 'origHeight': 409, 'width': 409, 'height': 409, 'widthPercent': 0.8, 'rescaleHeight': True, 'trialN': 27, 'loaded': True, 'loadedTime': 1875, 'positionName': 'CENTER', 'positionCoords': [595.5, 245.5]}]",Rate how much you want to eat this food from 0 (least) to 10 (most).,51022,1669833179519,turkey sandwich,1932,True,8.63,52954,1932,True,HRV,HRV_0212,2022-11-30 18:34:05
28,"[{'imgObject': {}, 'id': 'tacos', 'src': '/static/foodstim60/tacos.jpg', 'key': 'NaN', 'origWidth': 411, 'origHeight': 411, 'width': 411, 'height': 411, 'widthPercent': 0.8, 'rescaleHeight': True, 'trialN': 28, 'loaded': True, 'loadedTime': 1877, 'positionName': 'CENTER', 'positionCoords': [594.5, 244.5]}]",Rate how much you want to eat this food from 0 (least) to 10 (most).,52957,1669833181454,tacos,1669,True,7.36,54626,1669,True,HRV,HRV_0212,2022-11-30 18:34:05
29,"[{'imgObject': {}, 'id': 'hotdog w must', 'src': '/static/foodstim60/hotdog w must.jpg', 'key': 'NaN', 'origWidth': 409, 'origHeight': 409, 'width': 409, 'height': 409, 'widthPercent': 0.8, 'rescaleHeight': True, 'trialN': 29, 'loaded': True, 'loadedTime': 1878, 'positionName': 'CENTER', 'positionCoords': [595.5, 245.5]}]",Rate how much you want to eat this food from 0 (least) to 10 (most).,54644,1669833183140,hotdog w must,1201,True,8.08,55845,1201,True,HRV,HRV_0212,2022-11-30 18:34:05
30,"[{'imgObject': {}, 'id': 'chicken nuggets2', 'src': '/static/foodstim60/chicken nuggets2.jpg', 'key': 'NaN', 'origWidth': 410, 'origHeight': 409, 'width': 410, 'height': 409, 'widthPercent': 0.8, 'rescaleHeight': True, 'trialN': 30, 'loaded': True, 'loadedTime': 1879, 'positionName': 'CENTER', 'positionCoords': [595, 245.5]}]",Rate how much you want to eat this food from 0 (least) to 10 (most).,55856,1669833184352,chicken nuggets2,1317,True,7.5,57173,1317,True,HRV,HRV_0212,2022-11-30 18:34:05
31,"[{'imgObject': {}, 'id': 'sweetpotato', 'src': '/static/foodstim60/sweetpotato.jpg', 'key': 'NaN', 'origWidth': 410, 'origHeight': 410, 'width': 410, 'height': 410, 'widthPercent': 0.8, 'rescaleHeight': True, 'trialN': 31, 'loaded': True, 'loadedTime': 1880, 'positionName': 'CENTER', 'positionCoords': [595, 245]}]",Rate how much you want to eat this food from 0 (least) to 10 (most).,57187,1669833185683,sweetpotato,1674,True,9.92,58861,1674,True,HRV,HRV_0212,2022-11-30 18:34:05
32,"[{'imgObject': {}, 'id': 'blueberries', 'src': '/static/foodstim60/blueberries.jpg', 'key': 'NaN', 'origWidth': 411, 'origHeight': 411, 'width': 411, 'height': 411, 'widthPercent': 0.8, 'rescaleHeight': True, 'trialN': 32, 'loaded': True, 'loadedTime': 1881, 'positionName': 'CENTER', 'positionCoords': [594.5, 244.5]}]",Rate how much you want to eat this food from 0 (least) to 10 (most).,58876,1669833187372,blueberries,1438,True,9.950000000000001,60314,1438,True,HRV,HRV_0212,2022-11-30 18:34:05
33,"[{'imgObject': {}, 'id': 'hashbrowns', 'src': '/static/foodstim60/hashbrowns.jpg', 'key': 'NaN', 'origWidth': 411, 'origHeight': 410, 'width': 411, 'height': 410, 'widthPercent': 0.8, 'rescaleHeight': True, 'trialN': 33, 'loaded': True, 'loadedTime': 1882, 'positionName': 'CENTER', 'positionCoords': [594.5, 245]}]",Rate how much you want to eat this food from 0 (least) to 10 (most).,60325,1669833188822,hashbrowns,2707,True,0.07,63032,2707,True,HRV,HRV_0212,2022-11-30 18:34:05
34,"[{'imgObject': {}, 'id': 'granola w milk', 'src': '/static/foodstim60/granola w milk.jpg', 'key': 'NaN', 'origWidth': 410, 'origHeight': 410, 'width': 410, 'height': 410, 'widthPercent': 0.8, 'rescaleHeight': True, 'trialN': 34, 'loaded': True, 'loadedTime': 1883, 'positionName': 'CENTER', 'positionCoords': [595, 245]}]",Rate how much you want to eat this food from 0 (least) to 10 (most).,63035,1669833191531,granola w milk,2872,True,0.07,65907,2872,True,HRV,HRV_0212,2022-11-30 18:34:05
35,"[{'imgObject': {}, 'id': 'fried eggs', 'src': '/static/foodstim60/fried eggs.jpg', 'key': 'NaN', 'origWidth': 410, 'origHeight': 410, 'width': 410, 'height': 410, 'widthPercent': 0.8, 'rescaleHeight': True, 'trialN': 35, 'loaded': True, 'loadedTime': 1884, 'positionName': 'CENTER', 'positionCoords': [595, 245]}]",Rate how much you want to eat this food from 0 (least) to 10 (most).,65921,1669833194418,fried eggs,1690,True,8.66,67611,1690,True,HRV,HRV_0212,2022-11-30 18:34:05
36,"[{'imgObject': {}, 'id': 'veggieswithdip', 'src': '/static/foodstim60/veggieswithdip.jpg', 'key': 'NaN', 'origWidth': 409, 'origHeight': 409, 'width': 409, 'height': 409, 'widthPercent': 0.8, 'rescaleHeight': True, 'trialN': 36, 'loaded': True, 'loadedTime': 1885, 'positionName': 'CENTER', 'positionCoords': [595.5, 245.5]}]",Rate how much you want to eat this food from 0 (least) to 10 (most).,67623,1669833196120,veggieswithdip,1316,True,6.07,68939,1316,True,HRV,HRV_0212,2022-11-30 18:34:05
37,"[{'imgObject': {}, 'id': 'cherries', 'src': '/static/foodstim60/cherries.jpg', 'key': 'NaN', 'origWidth': 410, 'origHeight': 411, 'width': 410, 'height': 411, 'widthPercent': 0.8, 'rescaleHeight': True, 'trialN': 37, 'loaded': True, 'loadedTime': 1886, 'positionName': 'CENTER', 'positionCoords': [595, 244.5]}]",Rate how much you want to eat this food from 0 (least) to 10 (most).,68955,1669833197451,cherries,4812,True,8.41,73767,4812,True,HRV,HRV_0212,2022-11-30 18:34:05
38,"[{'imgObject': {}, 'id': 'fruitsalad', 'src': '/static/foodstim60/fruitsalad.jpg', 'key': 'NaN', 'origWidth': 410, 'origHeight': 410, 'width': 410, 'height': 410, 'widthPercent': 0.8, 'rescaleHeight': True, 'trialN': 38, 'loaded': True, 'loadedTime': 1887, 'positionName': 'CENTER', 'positionCoords': [595, 245]}]",Rate how much you want to eat this food from 0 (least) to 10 (most).,73779,1669833202276,fruitsalad,2238,True,9.950000000000001,76017,2238,True,HRV,HRV_0212,2022-11-30 18:34:05
39,"[{'imgObject': {}, 'id': 'ice cream sundae 002', 'src': '/static/foodstim60/ice cream sundae 002.jpg', 'key': 'NaN', 'origWidth': 409, 'origHeight': 409, 'width': 409, 'height': 409, 'widthPercent': 0.8, 'rescaleHeight': True, 'trialN': 39, 'loaded': True, 'loadedTime': 1888, 'positionName': 'CENTER', 'positionCoords': [595.5, 245.5]}]",Rate how much you want to eat this food from 0 (least) to 10 (most).,76025,1669833204522,ice cream sundae 002,4961,True,3.44,80986,4961,True,HRV,HRV_0212,2022-11-30 18:34:05
40,"[{'imgObject': {}, 'id': 'apple slices', 'src': '/static/foodstim60/apple slices.jpg', 'key': 'NaN', 'origWidth': 409, 'origHeight': 410, 'width': 409, 'height': 410, 'widthPercent': 0.8, 'rescaleHeight': True, 'trialN': 40, 'loaded': True, 'loadedTime': 1889, 'positionName': 'CENTER', 'positionCoords': [595.5, 245]}]",Rate how much you want to eat this food from 0 (least) to 10 (most).,80992,1669833209488,apple slices,2150,True,6.86,83142,2150,True,HRV,HRV_0212,2022-11-30 18:34:05
41,"[{'imgObject': {}, 'id': 'cherry tomato', 'src': '/static/foodstim60/cherry tomato.jpg', 'key': 'NaN', 'origWidth': 410, 'origHeight': 410, 'width': 410, 'height': 410, 'widthPercent': 0.8, 'rescaleHeight': True, 'trialN': 41, 'loaded': True, 'loadedTime': 1890, 'positionName': 'CENTER', 'positionCoords': [595, 245]}]",Rate how much you want to eat this food from 0 (least) to 10 (most).,83154,1669833211650,cherry tomato,2769,True,9.950000000000001,85923,2769,True,HRV,HRV_0212,2022-11-30 18:34:05
42,"[{'imgObject': {}, 'id': 'eggsalad', 'src': '/static/foodstim60/eggsalad.jpg', 'key': 'NaN', 'origWidth': 410, 'origHeight': 409, 'width': 410, 'height': 409, 'widthPercent': 0.8, 'rescaleHeight': True, 'trialN': 42, 'loaded': True, 'loadedTime': 1891, 'positionName': 'CENTER', 'positionCoords': [595, 245.5]}]",Rate how much you want to eat this food from 0 (least) to 10 (most).,85936,1669833214432,eggsalad,2534,True,7.66,88470,2534,True,HRV,HRV_0212,2022-11-30 18:34:05
43,"[{'imgObject': {}, 'id': 'burger', 'src': '/static/foodstim60/burger.jpg', 'key': 'NaN', 'origWidth': 409, 'origHeight': 409, 'width': 409, 'height': 409, 'widthPercent': 0.8, 'rescaleHeight': True, 'trialN': 43, 'loaded': True, 'loadedTime': 1892, 'positionName': 'CENTER', 'positionCoords': [595.5, 245.5]}]",Rate how much you want to eat this food from 0 (least) to 10 (most).,88476,1669833216972,burger,1197,True,8.44,89673,1197,True,HRV,HRV_0212,2022-11-30 18:34:05
44,"[{'imgObject': {}, 'id': 'steak', 'src': '/static/foodstim60/steak.jpg', 'key': 'NaN', 'origWidth': 410, 'origHeight': 410, 'width': 410, 'height': 410, 'widthPercent': 0.8, 'rescaleHeight': True, 'trialN': 44, 'loaded': True, 'loadedTime': 1893, 'positionName': 'CENTER', 'positionCoords': [595, 245]}]",Rate how much you want to eat this food from 0 (least) to 10 (most).,89687,1669833218184,steak,1330,True,9.31,91017,1330,True,HRV,HRV_0212,2022-11-30 18:34:05
45,"[{'imgObject': {}, 'id': 'rigatoni and sauce', 'src': '/static/foodstim60/rigatoni and sauce.jpg', 'key': 'NaN', 'origWidth': 410, 'origHeight': 411, 'width': 410, 'height': 411, 'widthPercent': 0.8, 'rescaleHeight': True, 'trialN': 45, 'loaded': True, 'loadedTime': 1894, 'positionName': 'CENTER', 'positionCoords': [595, 244.5]}]",Rate how much you want to eat this food from 0 (least) to 10 (most).,91020,1669833219516,rigatoni and sauce,3044,True,0.07,94064,3044,True,HRV,HRV_0212,2022-11-30 18:34:05
46,"[{'imgObject': {}, 'id': 'luckycharms', 'src': '/static/foodstim60/luckycharms.jpg', 'key': 'NaN', 'origWidth': 410, 'origHeight': 409, 'width': 410, 'height': 409, 'widthPercent': 0.8, 'rescaleHeight': True, 'trialN': 46, 'loaded': True, 'loadedTime': 1895, 'positionName': 'CENTER', 'positionCoords': [595, 245.5]}]",Rate how much you want to eat this food from 0 (least) to 10 (most).,94075,1669833222572,luckycharms,1286,True,0.05,95361,1286,True,HRV,HRV_0212,2022-11-30 18:34:05
47,"[{'imgObject': {}, 'id': 'eggs', 'src': '/static/foodstim60/eggs.jpg', 'key': 'NaN', 'origWidth': 409, 'origHeight': 409, 'width': 409, 'height': 409, 'widthPercent': 0.8, 'rescaleHeight': True, 'trialN': 47, 'loaded': True, 'loadedTime': 1896, 'positionName': 'CENTER', 'positionCoords': [595.5, 245.5]}]",Rate how much you want to eat this food from 0 (least) to 10 (most).,95376,1669833223873,eggs,2281,True,3.56,97657,2281,True,HRV,HRV_0212,2022-11-30 18:34:05
48,"[{'imgObject': {}, 'id': 'mango', 'src': '/static/foodstim60/mango.jpg', 'key': 'NaN', 'origWidth': 411, 'origHeight': 411, 'width': 411, 'height': 411, 'widthPercent': 0.8, 'rescaleHeight': True, 'trialN': 48, 'loaded': True, 'loadedTime': 1897, 'positionName': 'CENTER', 'positionCoords': [594.5, 244.5]}]",Rate how much you want to eat this food from 0 (least) to 10 (most).,97664,1669833226160,mango,1712,True,8.94,99376,1712,True,HRV,HRV_0212,2022-11-30 18:34:05
49,"[{'imgObject': {}, 'id': 'mashed potato', 'src': '/static/foodstim60/mashed potato.jpg', 'key': 'NaN', 'origWidth': 409, 'origHeight': 409, 'width': 409, 'height': 409, 'widthPercent': 0.8, 'rescaleHeight': True, 'trialN': 49, 'loaded': True, 'loadedTime': 1898, 'positionName': 'CENTER', 'positionCoords': [595.5, 245.5]}]",Rate how much you want to eat this food from 0 (least) to 10 (most).,99389,1669833227886,mashed potato,1268,True,8.85,100657,1268,True,HRV,HRV_0212,2022-11-30 18:34:05
50,"[{'imgObject': {}, 'id': 'omelette', 'src': '/static/foodstim60/omelette.jpg', 'key': 'NaN', 'origWidth': 410, 'origHeight': 409, 'width': 410, 'height': 409, 'widthPercent': 0.8, 'rescaleHeight': True, 'trialN': 50, 'loaded': True, 'loadedTime': 1898, 'positionName': 'CENTER', 'positionCoords': [595, 245.5]}]",Rate how much you want to eat this food from 0 (least) to 10 (most).,100670,1669833229166,omelette,1206,True,8.85,101876,1206,True,HRV,HRV_0212,2022-11-30 18:34:05
51,"[{'imgObject': {}, 'id': 'yogurt no spoon', 'src': '/static/foodstim60/yogurt no spoon.jpg', 'key': 'NaN', 'origWidth': 411, 'origHeight': 410, 'width': 411, 'height': 410, 'widthPercent': 0.8, 'rescaleHeight': True, 'trialN': 51, 'loaded': True, 'loadedTime': 1899, 'positionName': 'CENTER', 'positionCoords': [594.5, 245]}]",Rate how much you want to eat this food from 0 (least) to 10 (most).,101894,1669833230390,yogurt no spoon,1732,True,0.02,103626,1732,True,HRV,HRV_0212,2022-11-30 18:34:05
52,"[{'imgObject': {}, 'id': 'cocktailshrimp', 'src': '/static/foodstim60/cocktailshrimp.jpg', 'key': 'NaN', 'origWidth': 410, 'origHeight': 410, 'width': 410, 'height': 410, 'widthPercent': 0.8, 'rescaleHeight': True, 'trialN': 52, 'loaded': True, 'loadedTime': 1900, 'positionName': 'CENTER', 'positionCoords': [595, 245]}]",Rate how much you want to eat this food from 0 (least) to 10 (most).,103634,1669833232130,cocktailshrimp,1273,True,8.98,104907,1273,True,HRV,HRV_0212,2022-11-30 18:34:05
53,"[{'imgObject': {}, 'id': 'bagel and cc', 'src': '/static/foodstim60/bagel and cc.jpg', 'key': 'NaN', 'origWidth': 410, 'origHeight': 410, 'width': 410, 'height': 410, 'widthPercent': 0.8, 'rescaleHeight': True, 'trialN': 53, 'loaded': True, 'loadedTime': 1902, 'positionName': 'CENTER', 'positionCoords': [595, 245]}]",Rate how much you want to eat this food from 0 (least) to 10 (most).,104912,1669833233408,bagel and cc,1074,True,8.75,105986,1074,True,HRV,HRV_0212,2022-11-30 18:34:05
54,"[{'imgObject': {}, 'id': 'lox', 'src': '/static/foodstim60/lox.jpg', 'key': 'NaN', 'origWidth': 410, 'origHeight': 411, 'width': 410, 'height': 411, 'widthPercent': 0.8, 'rescaleHeight': True, 'trialN': 54, 'loaded': True, 'loadedTime': 1902, 'positionName': 'CENTER', 'positionCoords': [595, 244.5]}]",Rate how much you want to eat this food from 0 (least) to 10 (most).,105993,1669833234490,lox,1836,True,8.66,107829,1836,True,HRV,HRV_0212,2022-11-30 18:34:05
55,"[{'imgObject': {}, 'id': 'baked potato', 'src': '/static/foodstim60/baked potato.jpg', 'key': 'NaN', 'origWidth': 409, 'origHeight': 410, 'width': 409, 'height': 410, 'widthPercent': 0.8, 'rescaleHeight': True, 'trialN': 55, 'loaded': True, 'loadedTime': 1903, 'positionName': 'CENTER', 'positionCoords': [595.5, 245]}]",Rate how much you want to eat this food from 0 (least) to 10 (most).,107836,1669833236332,baked potato,1587,True,9.91,109423,1587,True,HRV,HRV_0212,2022-11-30 18:34:05
56,"[{'imgObject': {}, 'id': 'mac & cheese', 'src': '/static/foodstim60/mac & cheese.jpg', 'key': 'NaN', 'origWidth': 410, 'origHeight': 410, 'width': 410, 'height': 410, 'widthPercent': 0.8, 'rescaleHeight': True, 'trialN': 56, 'loaded': True, 'loadedTime': 1904, 'positionName': 'CENTER', 'positionCoords': [595, 245]}]",Rate how much you want to eat this food from 0 (least) to 10 (most).,109427,1669833237924,mac & cheese,2512,True,0.06,111939,2512,True,HRV,HRV_0212,2022-11-30 18:34:05
57,"[{'imgObject': {}, 'id': 'orange slices', 'src': '/static/foodstim60/orange slices.jpg', 'key': 'NaN', 'origWidth': 409, 'origHeight': 410, 'width': 409, 'height': 410, 'widthPercent': 0.8, 'rescaleHeight': True, 'trialN': 57, 'loaded': True, 'loadedTime': 1906, 'positionName': 'CENTER', 'positionCoords': [595.5, 245]}]",Rate how much you want to eat this food from 0 (least) to 10 (most).,111942,1669833240438,orange slices,1825,True,8.6,113767,1825,True,HRV,HRV_0212,2022-11-30 18:34:05
58,"[{'imgObject': {}, 'id': 'salmon', 'src': '/static/foodstim60/salmon.jpg', 'key': 'NaN', 'origWidth': 410, 'origHeight': 409, 'width': 410, 'height': 409, 'widthPercent': 0.8, 'rescaleHeight': True, 'trialN': 58, 'loaded': True, 'loadedTime': 1906, 'positionName': 'CENTER', 'positionCoords': [595, 245.5]}]",Rate how much you want to eat this food from 0 (least) to 10 (most).,113786,1669833242282,salmon,1465,True,6.37,115251,1465,True,HRV,HRV_0212,2022-11-30 18:34:05
59,"[{'imgObject': {}, 'id': 'blackbeanswithrice', 'src': '/static/foodstim60/blackbeanswithrice.jpg', 'key': 'NaN', 'origWidth': 410, 'origHeight': 410, 'width': 410, 'height': 410, 'widthPercent': 0.8, 'rescaleHeight': True, 'trialN': 59, 'loaded': True, 'loadedTime': 1907, 'positionName': 'CENTER', 'positionCoords': [595, 245]}]",Rate how much you want to eat this food from 0 (least) to 10 (most).,115263,1669833243760,blackbeanswithrice,1848,True,0.08,117111,1848,True,HRV,HRV_0212,2022-11-30 18:34:05
