trialN,stimuli,trialStartTime,trialStartTime_UNIX,stimulus1,stimulus2,stimulus1Bid,stimulus2Bid,delta,trialEvents,selected,rt,rt_UNIX,rt_perfnow,receivedResponse,rsp,trialEndTime,trialDuration,trialEndTime_UNIX,trialDuration_UNIX,exp,subjectId,date
0,"[{'imgObject': {}, 'id': 'blueberries', 'src': '/static/foodstim60/blueberries.jpg', 'key': 'u', 'origWidth': 411, 'origHeight': 411, 'width': 411, 'height': 411, 'widthPercent': 0.45, 'rescaleHeight': False, 'trialN': 0, 'loaded': True, 'loadedTime': 3745.2000000029802, 'positionName': 'LEFT', 'positionCoords': [357, 244.5], 'bid': 6.07}, {'imgObject': {}, 'id': 'rigatoni', 'src': '/static/foodstim60/rigatoni.jpg', 'key': 'i', 'origWidth': 411, 'origHeight': 411, 'width': 411, 'height': 411, 'widthPercent': 0.45, 'rescaleHeight': False, 'trialN': 0, 'loaded': True, 'loadedTime': 3745.5, 'positionName': 'RIGHT', 'positionCoords': [832, 244.5], 'bid': 5.48}]",3782.1000000089407,1669831298730,blueberries,rigatoni,6.07,5.48,-0.5899999999999999,"[{'event': 'fullscreenchange', 'details': 'fullscreenexit', 'performance time': 4038.6000000089407, 'date time': 1669831298986}]",blueberries,1505.3999999910593,1506,1506.2999999970198,True,u,5808.9000000059605,2026.7999999970198,1669831300756,2026,HRV,HRV_0145,2022-11-30 18:06:44
1,"[{'imgObject': {}, 'id': 'cherries', 'src': '/static/foodstim60/cherries.jpg', 'key': 'u', 'origWidth': 410, 'origHeight': 411, 'width': 410, 'height': 411, 'widthPercent': 0.45, 'rescaleHeight': False, 'trialN': 1, 'loaded': True, 'loadedTime': 5811.300000011921, 'positionName': 'LEFT', 'positionCoords': [358, 189], 'bid': 7.2}, {'imgObject': {}, 'id': 'chicken nuggets2', 'src': '/static/foodstim60/chicken nuggets2.jpg', 'key': 'i', 'origWidth': 410, 'origHeight': 409, 'width': 410, 'height': 409, 'widthPercent': 0.45, 'rescaleHeight': False, 'trialN': 1, 'loaded': True, 'loadedTime': 5811.600000008941, 'positionName': 'RIGHT', 'positionCoords': [832, 190], 'bid': 8.57}]",5809.5,1669831300757,cherries,chicken nuggets2,7.2,8.57,1.37,,chicken nuggets2,1005.1000000089407,1005,1005.3000000119209,True,i,7317.0,1507.5,1669831302265,1508,HRV,HRV_0145,2022-11-30 18:06:44
2,"[{'imgObject': {}, 'id': 'mac & cheese', 'src': '/static/foodstim60/mac & cheese.jpg', 'key': 'u', 'origWidth': 410, 'origHeight': 410, 'width': 410, 'height': 410, 'widthPercent': 0.45, 'rescaleHeight': False, 'trialN': 2, 'loaded': True, 'loadedTime': 7317.9000000059605, 'positionName': 'LEFT', 'positionCoords': [358, 189.5], 'bid': 4.66}, {'imgObject': {}, 'id': 'granola w milk', 'src': '/static/foodstim60/granola w milk.jpg', 'key': 'i', 'origWidth': 410, 'origHeight': 410, 'width': 410, 'height': 410, 'widthPercent': 0.45, 'rescaleHeight': False, 'trialN': 2, 'loaded': True, 'loadedTime': 7318, 'positionName': 'RIGHT', 'positionCoords': [832, 189.5], 'bid': 4.73}]",7317.300000011921,1669831302265,mac & cheese,granola w milk,4.66,4.73,0.07000000000000028,,mac & cheese,1010.5999999940395,1011,1011.0,True,u,8843.90000000596,1526.5999999940395,1669831303791,1526,HRV,HRV_0145,2022-11-30 18:06:44
3,"[{'imgObject': {}, 'id': 'chickenfingers', 'src': '/static/foodstim60/chickenfingers.jpg', 'key': 'u', 'origWidth': 410, 'origHeight': 410, 'width': 410, 'height': 410, 'widthPercent': 0.45, 'rescaleHeight': False, 'trialN': 3, 'loaded': True, 'loadedTime': 8846, 'positionName': 'LEFT', 'positionCoords': [358, 189.5], 'bid': 8.72}, {'imgObject': {}, 'id': 'chicken nuggets2', 'src': '/static/foodstim60/chicken nuggets2.jpg', 'key': 'i', 'origWidth': 410, 'origHeight': 409, 'width': 410, 'height': 409, 'widthPercent': 0.45, 'rescaleHeight': False, 'trialN': 3, 'loaded': True, 'loadedTime': 8846.40000000596, 'positionName': 'RIGHT', 'positionCoords': [832, 190], 'bid': 8.57}]",8844.40000000596,1669831303792,chickenfingers,chicken nuggets2,8.72,8.57,-0.15000000000000036,,chickenfingers,1491,1491,1491.4000000059605,True,u,10839.70000000298,1995.2999999970198,1669831305787,1995,HRV,HRV_0145,2022-11-30 18:06:44
4,"[{'imgObject': {}, 'id': 'luckycharms', 'src': '/static/foodstim60/luckycharms.jpg', 'key': 'u', 'origWidth': 410, 'origHeight': 409, 'width': 410, 'height': 409, 'widthPercent': 0.45, 'rescaleHeight': False, 'trialN': 4, 'loaded': True, 'loadedTime': 10841.90000000596, 'positionName': 'LEFT', 'positionCoords': [358, 190], 'bid': 6.91}, {'imgObject': {}, 'id': 'strawberries', 'src': '/static/foodstim60/strawberries.jpg', 'key': 'i', 'origWidth': 410, 'origHeight': 410, 'width': 410, 'height': 410, 'widthPercent': 0.45, 'rescaleHeight': False, 'trialN': 4, 'loaded': True, 'loadedTime': 10842.70000000298, 'positionName': 'RIGHT', 'positionCoords': [832, 189.5], 'bid': 7.86}]",10840.20000000298,1669831305788,luckycharms,strawberries,6.91,7.86,0.9500000000000002,,strawberries,1303.7000000029802,1304,1304.0,True,i,12667.5,1827.2999999970198,1669831307615,1827,HRV,HRV_0145,2022-11-30 18:06:44
5,"[{'imgObject': {}, 'id': 'cantaloupe', 'src': '/static/foodstim60/cantaloupe.jpg', 'key': 'u', 'origWidth': 409, 'origHeight': 409, 'width': 409, 'height': 409, 'widthPercent': 0.45, 'rescaleHeight': False, 'trialN': 5, 'loaded': True, 'loadedTime': 12669.5, 'positionName': 'LEFT', 'positionCoords': [359, 190], 'bid': 7.01}, {'imgObject': {}, 'id': 'luckycharms', 'src': '/static/foodstim60/luckycharms.jpg', 'key': 'i', 'origWidth': 410, 'origHeight': 409, 'width': 410, 'height': 409, 'widthPercent': 0.45, 'rescaleHeight': False, 'trialN': 5, 'loaded': True, 'loadedTime': 12669.70000000298, 'positionName': 'RIGHT', 'positionCoords': [832, 190], 'bid': 6.91}]",12668.20000000298,1669831307616,cantaloupe,luckycharms,7.01,6.91,-0.09999999999999964,,cantaloupe,1739.7999999970198,1740,1740.2999999970198,True,u,14923.5,2255.2999999970198,1669831309871,2255,HRV,HRV_0145,2022-11-30 18:06:44
6,"[{'imgObject': {}, 'id': 'turkeysandwich', 'src': '/static/foodstim60/turkeysandwich.jpg', 'key': 'u', 'origWidth': 409, 'origHeight': 409, 'width': 409, 'height': 409, 'widthPercent': 0.45, 'rescaleHeight': False, 'trialN': 6, 'loaded': True, 'loadedTime': 14924.90000000596, 'positionName': 'LEFT', 'positionCoords': [359, 190], 'bid': 7.22}, {'imgObject': {}, 'id': 'chickenfingers', 'src': '/static/foodstim60/chickenfingers.jpg', 'key': 'i', 'origWidth': 410, 'origHeight': 410, 'width': 410, 'height': 410, 'widthPercent': 0.45, 'rescaleHeight': False, 'trialN': 6, 'loaded': True, 'loadedTime': 14925.10000000894, 'positionName': 'RIGHT', 'positionCoords': [832, 189.5], 'bid': 8.72}]",14923.800000011921,1669831309871,turkeysandwich,chickenfingers,7.22,8.72,1.5000000000000009,,chickenfingers,932.2999999970198,933,932.6999999880791,True,i,16379.20000000298,1455.3999999910593,1669831311327,1456,HRV,HRV_0145,2022-11-30 18:06:44
7,"[{'imgObject': {}, 'id': 'bagel and cc', 'src': '/static/foodstim60/bagel and cc.jpg', 'key': 'u', 'origWidth': 410, 'origHeight': 410, 'width': 410, 'height': 410, 'widthPercent': 0.45, 'rescaleHeight': False, 'trialN': 7, 'loaded': True, 'loadedTime': 16382, 'positionName': 'LEFT', 'positionCoords': [358, 189.5], 'bid': 5.05}, {'imgObject': {}, 'id': 'sweetpotato', 'src': '/static/foodstim60/sweetpotato.jpg', 'key': 'i', 'origWidth': 410, 'origHeight': 410, 'width': 410, 'height': 410, 'widthPercent': 0.45, 'rescaleHeight': False, 'trialN': 7, 'loaded': True, 'loadedTime': 16382.60000000894, 'positionName': 'RIGHT', 'positionCoords': [832, 189.5], 'bid': 1.65}]",16379.90000000596,1669831311327,bagel and cc,sweetpotato,5.05,1.65,-3.4,,bagel and cc,988,989,988.4000000059605,True,u,17886.70000000298,1506.7999999970198,1669831312834,1507,HRV,HRV_0145,2022-11-30 18:06:44
8,"[{'imgObject': {}, 'id': 'kiwi', 'src': '/static/foodstim60/kiwi.jpg', 'key': 'u', 'origWidth': 410, 'origHeight': 410, 'width': 410, 'height': 410, 'widthPercent': 0.45, 'rescaleHeight': False, 'trialN': 8, 'loaded': True, 'loadedTime': 17887.90000000596, 'positionName': 'LEFT', 'positionCoords': [358, 189.5], 'bid': 6.58}, {'imgObject': {}, 'id': 'avocado', 'src': '/static/foodstim60/avocado.jpg', 'key': 'i', 'origWidth': 409, 'origHeight': 409, 'width': 409, 'height': 409, 'widthPercent': 0.45, 'rescaleHeight': False, 'trialN': 8, 'loaded': True, 'loadedTime': 17888, 'positionName': 'RIGHT', 'positionCoords': [832, 190], 'bid': 0.42}]",17887.0,1669831312834,kiwi,avocado,6.58,0.42,-6.16,,kiwi,1633,1634,1633.4000000059605,True,u,20040.0,2153.0,1669831314988,2154,HRV,HRV_0145,2022-11-30 18:06:44
9,"[{'imgObject': {}, 'id': 'cherry tomato', 'src': '/static/foodstim60/cherry tomato.jpg', 'key': 'u', 'origWidth': 410, 'origHeight': 410, 'width': 410, 'height': 410, 'widthPercent': 0.45, 'rescaleHeight': False, 'trialN': 9, 'loaded': True, 'loadedTime': 20042.5, 'positionName': 'LEFT', 'positionCoords': [358, 189.5], 'bid': 2.98}, {'imgObject': {}, 'id': 'edamame', 'src': '/static/foodstim60/edamame.jpg', 'key': 'i', 'origWidth': 409, 'origHeight': 410, 'width': 409, 'height': 410, 'widthPercent': 0.45, 'rescaleHeight': False, 'trialN': 9, 'loaded': True, 'loadedTime': 20042.90000000596, 'positionName': 'RIGHT', 'positionCoords': [832, 189.5], 'bid': 3.63}]",20040.70000000298,1669831314988,cherry tomato,edamame,2.98,3.63,0.6499999999999999,,cherry tomato,903.2000000029802,904,903.6000000089407,True,u,21459.5,1418.7999999970198,1669831316407,1419,HRV,HRV_0145,2022-11-30 18:06:44
10,"[{'imgObject': {}, 'id': 'omelette', 'src': '/static/foodstim60/omelette.jpg', 'key': 'u', 'origWidth': 410, 'origHeight': 409, 'width': 410, 'height': 409, 'widthPercent': 0.45, 'rescaleHeight': False, 'trialN': 10, 'loaded': True, 'loadedTime': 21461.90000000596, 'positionName': 'LEFT', 'positionCoords': [358, 190], 'bid': 4.98}, {'imgObject': {}, 'id': 'salmon', 'src': '/static/foodstim60/salmon.jpg', 'key': 'i', 'origWidth': 410, 'origHeight': 409, 'width': 410, 'height': 409, 'widthPercent': 0.45, 'rescaleHeight': False, 'trialN': 10, 'loaded': True, 'loadedTime': 21462.30000001192, 'positionName': 'RIGHT', 'positionCoords': [832, 190], 'bid': 0.13}]",21460.0,1669831316408,omelette,salmon,4.98,0.13,-4.8500000000000005,,omelette,1076.1000000089407,1076,1076.5,True,u,23050.0,1590.0,1669831317997,1589,HRV,HRV_0145,2022-11-30 18:06:44
11,"[{'imgObject': {}, 'id': 'popsicles', 'src': '/static/foodstim60/popsicles.jpg', 'key': 'u', 'origWidth': 410, 'origHeight': 410, 'width': 410, 'height': 410, 'widthPercent': 0.45, 'rescaleHeight': False, 'trialN': 11, 'loaded': True, 'loadedTime': 23052.60000000894, 'positionName': 'LEFT', 'positionCoords': [358, 189.5], 'bid': 6.5200000000000005}, {'imgObject': {}, 'id': 'salmon', 'src': '/static/foodstim60/salmon.jpg', 'key': 'i', 'origWidth': 410, 'origHeight': 409, 'width': 410, 'height': 409, 'widthPercent': 0.45, 'rescaleHeight': False, 'trialN': 11, 'loaded': True, 'loadedTime': 23052.90000000596, 'positionName': 'RIGHT', 'positionCoords': [832, 190], 'bid': 0.13}]",23050.70000000298,1669831317998,popsicles,salmon,6.5200000000000005,0.13,-6.390000000000001,,popsicles,725.2000000029802,726,725.7000000029802,True,u,24292.80000001192,1242.1000000089407,1669831319240,1242,HRV,HRV_0145,2022-11-30 18:06:44
12,"[{'imgObject': {}, 'id': 'sweetpotato', 'src': '/static/foodstim60/sweetpotato.jpg', 'key': 'u', 'origWidth': 410, 'origHeight': 410, 'width': 410, 'height': 410, 'widthPercent': 0.45, 'rescaleHeight': False, 'trialN': 12, 'loaded': True, 'loadedTime': 24295.30000001192, 'positionName': 'LEFT', 'positionCoords': [358, 189.5], 'bid': 1.65}, {'imgObject': {}, 'id': 'edamame', 'src': '/static/foodstim60/edamame.jpg', 'key': 'i', 'origWidth': 409, 'origHeight': 410, 'width': 409, 'height': 410, 'widthPercent': 0.45, 'rescaleHeight': False, 'trialN': 12, 'loaded': True, 'loadedTime': 24296, 'positionName': 'RIGHT', 'positionCoords': [832, 189.5], 'bid': 3.63}]",24293.40000000596,1669831319241,sweetpotato,edamame,1.65,3.63,1.98,,sweetpotato,1466.5,1467,1467.0,True,u,26278.80000001192,1985.4000000059605,1669831321226,1985,HRV,HRV_0145,2022-11-30 18:06:44
13,"[{'imgObject': {}, 'id': 'corn cob', 'src': '/static/foodstim60/corn cob.jpg', 'key': 'u', 'origWidth': 411, 'origHeight': 411, 'width': 411, 'height': 411, 'widthPercent': 0.45, 'rescaleHeight': False, 'trialN': 13, 'loaded': True, 'loadedTime': 26280.5, 'positionName': 'LEFT', 'positionCoords': [357, 189], 'bid': 4.67}, {'imgObject': {}, 'id': 'olives', 'src': '/static/foodstim60/olives.jpg', 'key': 'i', 'origWidth': 410, 'origHeight': 410, 'width': 410, 'height': 410, 'widthPercent': 0.45, 'rescaleHeight': False, 'trialN': 13, 'loaded': True, 'loadedTime': 26280.90000000596, 'positionName': 'RIGHT', 'positionCoords': [832, 189.5], 'bid': 0.07}]",26279.10000000894,1669831321227,corn cob,olives,4.67,0.07,-4.6,,corn cob,936.5,936,936.7999999970198,True,u,27726.10000000894,1447.0,1669831322674,1447,HRV,HRV_0145,2022-11-30 18:06:44
14,"[{'imgObject': {}, 'id': 'blackbeanswithrice', 'src': '/static/foodstim60/blackbeanswithrice.jpg', 'key': 'u', 'origWidth': 410, 'origHeight': 410, 'width': 410, 'height': 410, 'widthPercent': 0.45, 'rescaleHeight': False, 'trialN': 14, 'loaded': True, 'loadedTime': 27728.5, 'positionName': 'LEFT', 'positionCoords': [358, 189.5], 'bid': 5.43}, {'imgObject': {}, 'id': 'Tribe humus pita', 'src': '/static/foodstim60/Tribe humus pita.jpg', 'key': 'i', 'origWidth': 411, 'origHeight': 411, 'width': 411, 'height': 411, 'widthPercent': 0.45, 'rescaleHeight': False, 'trialN': 14, 'loaded': True, 'loadedTime': 27728.90000000596, 'positionName': 'RIGHT', 'positionCoords': [832, 189], 'bid': 5.28}]",27726.60000000894,1669831322674,blackbeanswithrice,Tribe humus pita,5.43,5.28,-0.14999999999999947,,Tribe humus pita,936.8999999910593,938,937.5,True,i,29170.5,1443.8999999910593,1669831324118,1444,HRV,HRV_0145,2022-11-30 18:06:44
15,"[{'imgObject': {}, 'id': 'Grapes', 'src': '/static/foodstim60/Grapes.jpg', 'key': 'u', 'origWidth': 411, 'origHeight': 411, 'width': 411, 'height': 411, 'widthPercent': 0.45, 'rescaleHeight': False, 'trialN': 15, 'loaded': True, 'loadedTime': 29172.10000000894, 'positionName': 'LEFT', 'positionCoords': [357, 189], 'bid': 7.07}, {'imgObject': {}, 'id': 'apple slices', 'src': '/static/foodstim60/apple slices.jpg', 'key': 'i', 'origWidth': 409, 'origHeight': 410, 'width': 409, 'height': 410, 'widthPercent': 0.45, 'rescaleHeight': False, 'trialN': 15, 'loaded': True, 'loadedTime': 29172.20000000298, 'positionName': 'RIGHT', 'positionCoords': [832, 189.5], 'bid': 7.03}]",29171.0,1669831324119,Grapes,apple slices,7.07,7.03,-0.040000000000000036,,apple slices,933,933,933.4000000059605,True,i,30617.60000000894,1446.6000000089407,1669831325565,1446,HRV,HRV_0145,2022-11-30 18:06:44
16,"[{'imgObject': {}, 'id': 'salmon', 'src': '/static/foodstim60/salmon.jpg', 'key': 'u', 'origWidth': 410, 'origHeight': 409, 'width': 410, 'height': 409, 'widthPercent': 0.45, 'rescaleHeight': False, 'trialN': 16, 'loaded': True, 'loadedTime': 30619.90000000596, 'positionName': 'LEFT', 'positionCoords': [358, 190], 'bid': 0.13}, {'imgObject': {}, 'id': 'seaweed', 'src': '/static/foodstim60/seaweed.jpg', 'key': 'i', 'origWidth': 410, 'origHeight': 410, 'width': 410, 'height': 410, 'widthPercent': 0.45, 'rescaleHeight': False, 'trialN': 16, 'loaded': True, 'loadedTime': 30620.60000000894, 'positionName': 'RIGHT', 'positionCoords': [832, 189.5], 'bid': 0}]",30618.20000000298,1669831325566,salmon,seaweed,0.13,0.0,-0.13,,salmon,1558.1000000089407,1558,1558.6000000089407,True,u,32684.90000000596,2066.7000000029802,1669831327632,2066,HRV,HRV_0145,2022-11-30 18:06:44
17,"[{'imgObject': {}, 'id': 'lox', 'src': '/static/foodstim60/lox.jpg', 'key': 'u', 'origWidth': 410, 'origHeight': 411, 'width': 410, 'height': 411, 'widthPercent': 0.45, 'rescaleHeight': False, 'trialN': 17, 'loaded': True, 'loadedTime': 32687.40000000596, 'positionName': 'LEFT', 'positionCoords': [358, 189], 'bid': 0.08}, {'imgObject': {}, 'id': 'cherry tomato', 'src': '/static/foodstim60/cherry tomato.jpg', 'key': 'i', 'origWidth': 410, 'origHeight': 410, 'width': 410, 'height': 410, 'widthPercent': 0.45, 'rescaleHeight': False, 'trialN': 17, 'loaded': True, 'loadedTime': 32687.90000000596, 'positionName': 'RIGHT', 'positionCoords': [832, 189.5], 'bid': 2.98}]",32685.5,1669831327633,lox,cherry tomato,0.08,2.98,2.9,,cherry tomato,1138.300000011921,1139,1138.800000011921,True,i,34335.80000001192,1650.300000011921,1669831329283,1650,HRV,HRV_0145,2022-11-30 18:06:44
18,"[{'imgObject': {}, 'id': 'grilled chicken strips', 'src': '/static/foodstim60/grilled chicken strips.jpg', 'key': 'u', 'origWidth': 410, 'origHeight': 411, 'width': 410, 'height': 411, 'widthPercent': 0.45, 'rescaleHeight': False, 'trialN': 18, 'loaded': True, 'loadedTime': 34338.30000001192, 'positionName': 'LEFT', 'positionCoords': [358, 189], 'bid': 8.14}, {'imgObject': {}, 'id': 'salad w chicken', 'src': '/static/foodstim60/salad w chicken.jpg', 'key': 'i', 'origWidth': 411, 'origHeight': 411, 'width': 411, 'height': 411, 'widthPercent': 0.45, 'rescaleHeight': False, 'trialN': 18, 'loaded': True, 'loadedTime': 34338.70000000298, 'positionName': 'RIGHT', 'positionCoords': [832, 189], 'bid': 9.21}]",34336.40000000596,1669831329284,grilled chicken strips,salad w chicken,8.14,9.21,1.0700000000000003,,salad w chicken,1215.7000000029802,1216,1216.2999999970198,True,i,36063.5,1727.0999999940395,1669831331011,1727,HRV,HRV_0145,2022-11-30 18:06:44
19,"[{'imgObject': {}, 'id': 'steak', 'src': '/static/foodstim60/steak.jpg', 'key': 'u', 'origWidth': 410, 'origHeight': 410, 'width': 410, 'height': 410, 'widthPercent': 0.45, 'rescaleHeight': False, 'trialN': 19, 'loaded': True, 'loadedTime': 36065.90000000596, 'positionName': 'LEFT', 'positionCoords': [358, 189.5], 'bid': 8.57}, {'imgObject': {}, 'id': 'pear', 'src': '/static/foodstim60/pear.jpg', 'key': 'i', 'origWidth': 411, 'origHeight': 410, 'width': 411, 'height': 410, 'widthPercent': 0.45, 'rescaleHeight': False, 'trialN': 19, 'loaded': True, 'loadedTime': 36066.30000001192, 'positionName': 'RIGHT', 'positionCoords': [832, 189.5], 'bid': 7.17}]",36064.10000000894,1669831331012,steak,pear,8.57,7.17,-1.4000000000000004,,steak,1031.5,1031,1031.8999999910593,True,u,37602.30000001192,1538.2000000029802,1669831332549,1537,HRV,HRV_0145,2022-11-30 18:06:44
20,"[{'imgObject': {}, 'id': 'cherry tomato', 'src': '/static/foodstim60/cherry tomato.jpg', 'key': 'u', 'origWidth': 410, 'origHeight': 410, 'width': 410, 'height': 410, 'widthPercent': 0.45, 'rescaleHeight': False, 'trialN': 20, 'loaded': True, 'loadedTime': 37604.5, 'positionName': 'LEFT', 'positionCoords': [358, 189.5], 'bid': 2.98}, {'imgObject': {}, 'id': 'avocado', 'src': '/static/foodstim60/avocado.jpg', 'key': 'i', 'origWidth': 409, 'origHeight': 409, 'width': 409, 'height': 409, 'widthPercent': 0.45, 'rescaleHeight': False, 'trialN': 20, 'loaded': True, 'loadedTime': 37604.70000000298, 'positionName': 'RIGHT', 'positionCoords': [832, 190], 'bid': 0.42}]",37602.90000000596,1669831332549,cherry tomato,avocado,2.98,0.42,-2.56,,cherry tomato,1636.7000000029802,1638,1637.2999999970198,True,u,39752.0,2149.0999999940395,1669831334699,2150,HRV,HRV_0145,2022-11-30 18:06:44
21,"[{'imgObject': {}, 'id': 'edamame', 'src': '/static/foodstim60/edamame.jpg', 'key': 'u', 'origWidth': 409, 'origHeight': 410, 'width': 409, 'height': 410, 'widthPercent': 0.45, 'rescaleHeight': False, 'trialN': 21, 'loaded': True, 'loadedTime': 39754.5, 'positionName': 'LEFT', 'positionCoords': [359, 189.5], 'bid': 3.63}, {'imgObject': {}, 'id': 'seaweed', 'src': '/static/foodstim60/seaweed.jpg', 'key': 'i', 'origWidth': 410, 'origHeight': 410, 'width': 410, 'height': 410, 'widthPercent': 0.45, 'rescaleHeight': False, 'trialN': 21, 'loaded': True, 'loadedTime': 39755.20000000298, 'positionName': 'RIGHT', 'positionCoords': [832, 189.5], 'bid': 0}]",39752.60000000894,1669831334699,edamame,seaweed,3.63,0.0,-3.63,,edamame,838.7000000029802,839,839.2000000029802,True,u,41101.90000000596,1349.2999999970198,1669831336049,1350,HRV,HRV_0145,2022-11-30 18:06:44
22,"[{'imgObject': {}, 'id': 'bagel plain', 'src': '/static/foodstim60/bagel plain.jpg', 'key': 'u', 'origWidth': 410, 'origHeight': 410, 'width': 410, 'height': 410, 'widthPercent': 0.45, 'rescaleHeight': False, 'trialN': 22, 'loaded': True, 'loadedTime': 41104.90000000596, 'positionName': 'LEFT', 'positionCoords': [358, 189.5], 'bid': 5}, {'imgObject': {}, 'id': 'grilled chicken strips', 'src': '/static/foodstim60/grilled chicken strips.jpg', 'key': 'i', 'origWidth': 410, 'origHeight': 411, 'width': 410, 'height': 411, 'widthPercent': 0.45, 'rescaleHeight': False, 'trialN': 22, 'loaded': True, 'loadedTime': 41105.40000000596, 'positionName': 'RIGHT', 'positionCoords': [832, 189], 'bid': 8.14}]",41102.70000000298,1669831336049,bagel plain,grilled chicken strips,5.0,8.14,3.1400000000000006,,grilled chicken strips,1047.2999999970198,1048,1047.5,True,i,42656.80000001192,1554.1000000089407,1669831337603,1554,HRV,HRV_0145,2022-11-30 18:06:44
23,"[{'imgObject': {}, 'id': 'salad w chicken', 'src': '/static/foodstim60/salad w chicken.jpg', 'key': 'u', 'origWidth': 411, 'origHeight': 411, 'width': 411, 'height': 411, 'widthPercent': 0.45, 'rescaleHeight': False, 'trialN': 23, 'loaded': True, 'loadedTime': 42659.30000001192, 'positionName': 'LEFT', 'positionCoords': [357, 189], 'bid': 9.21}, {'imgObject': {}, 'id': 'chickenfingers', 'src': '/static/foodstim60/chickenfingers.jpg', 'key': 'i', 'origWidth': 410, 'origHeight': 410, 'width': 410, 'height': 410, 'widthPercent': 0.45, 'rescaleHeight': False, 'trialN': 23, 'loaded': True, 'loadedTime': 42659.70000000298, 'positionName': 'RIGHT', 'positionCoords': [832, 189.5], 'bid': 8.72}]",42657.30000001192,1669831337604,salad w chicken,chickenfingers,9.21,8.72,-0.4900000000000002,,salad w chicken,1181.7999999970198,1182,1182.0999999940395,True,u,44354.90000000596,1697.5999999940395,1669831339301,1697,HRV,HRV_0145,2022-11-30 18:06:44
24,"[{'imgObject': {}, 'id': 'granola w milk', 'src': '/static/foodstim60/granola w milk.jpg', 'key': 'u', 'origWidth': 410, 'origHeight': 410, 'width': 410, 'height': 410, 'widthPercent': 0.45, 'rescaleHeight': False, 'trialN': 24, 'loaded': True, 'loadedTime': 44357.10000000894, 'positionName': 'LEFT', 'positionCoords': [358, 189.5], 'bid': 4.73}, {'imgObject': {}, 'id': 'ice cream sundae 002', 'src': '/static/foodstim60/ice cream sundae 002.jpg', 'key': 'i', 'origWidth': 409, 'origHeight': 409, 'width': 409, 'height': 409, 'widthPercent': 0.45, 'rescaleHeight': False, 'trialN': 24, 'loaded': True, 'loadedTime': 44357.40000000596, 'positionName': 'RIGHT', 'positionCoords': [832, 190], 'bid': 7.45}]",44355.30000001192,1669831339302,granola w milk,ice cream sundae 002,4.73,7.45,2.7199999999999998,,ice cream sundae 002,860.2999999970198,861,860.6999999880791,True,i,45724.40000000596,1369.0999999940395,1669831340671,1369,HRV,HRV_0145,2022-11-30 18:06:44
25,"[{'imgObject': {}, 'id': 'fried eggs', 'src': '/static/foodstim60/fried eggs.jpg', 'key': 'u', 'origWidth': 410, 'origHeight': 410, 'width': 410, 'height': 410, 'widthPercent': 0.45, 'rescaleHeight': False, 'trialN': 25, 'loaded': True, 'loadedTime': 45725.70000000298, 'positionName': 'LEFT', 'positionCoords': [358, 189.5], 'bid': 5.12}, {'imgObject': {}, 'id': 'froot loops w milk', 'src': '/static/foodstim60/froot loops w milk.jpg', 'key': 'i', 'origWidth': 410, 'origHeight': 410, 'width': 410, 'height': 410, 'widthPercent': 0.45, 'rescaleHeight': False, 'trialN': 25, 'loaded': True, 'loadedTime': 45726.10000000894, 'positionName': 'RIGHT', 'positionCoords': [832, 189.5], 'bid': 5.83}]",45724.80000001192,1669831340671,fried eggs,froot loops w milk,5.12,5.83,0.71,,froot loops w milk,2114.8999999910593,2116,2115.2999999970198,True,i,48355.5,2630.699999988079,1669831343302,2631,HRV,HRV_0145,2022-11-30 18:06:44
26,"[{'imgObject': {}, 'id': 'mashed potato', 'src': '/static/foodstim60/mashed potato.jpg', 'key': 'u', 'origWidth': 409, 'origHeight': 409, 'width': 409, 'height': 409, 'widthPercent': 0.45, 'rescaleHeight': False, 'trialN': 26, 'loaded': True, 'loadedTime': 48358.70000000298, 'positionName': 'LEFT', 'positionCoords': [359, 190], 'bid': 4.86}, {'imgObject': {}, 'id': 'rigatoni and sauce', 'src': '/static/foodstim60/rigatoni and sauce.jpg', 'key': 'i', 'origWidth': 410, 'origHeight': 411, 'width': 410, 'height': 411, 'widthPercent': 0.45, 'rescaleHeight': False, 'trialN': 26, 'loaded': True, 'loadedTime': 48359.40000000596, 'positionName': 'RIGHT', 'positionCoords': [832, 189], 'bid': 7.91}]",48356.40000000596,1669831343303,mashed potato,rigatoni and sauce,4.86,7.91,3.05,,rigatoni and sauce,843.0999999940395,844,843.5999999940395,True,i,49708.40000000596,1352.0,1669831344655,1352,HRV,HRV_0145,2022-11-30 18:06:44
27,"[{'imgObject': {}, 'id': 'turkeysandwich', 'src': '/static/foodstim60/turkeysandwich.jpg', 'key': 'u', 'origWidth': 409, 'origHeight': 409, 'width': 409, 'height': 409, 'widthPercent': 0.45, 'rescaleHeight': False, 'trialN': 27, 'loaded': True, 'loadedTime': 49710.70000000298, 'positionName': 'LEFT', 'positionCoords': [359, 190], 'bid': 7.22}, {'imgObject': {}, 'id': 'cantaloupe', 'src': '/static/foodstim60/cantaloupe.jpg', 'key': 'i', 'origWidth': 409, 'origHeight': 409, 'width': 409, 'height': 409, 'widthPercent': 0.45, 'rescaleHeight': False, 'trialN': 27, 'loaded': True, 'loadedTime': 49711, 'positionName': 'RIGHT', 'positionCoords': [832, 190], 'bid': 7.01}]",49708.90000000596,1669831344655,turkeysandwich,cantaloupe,7.22,7.01,-0.20999999999999996,,turkeysandwich,875.7000000029802,876,875.9000000059605,True,u,51092.5,1383.5999999940395,1669831346039,1384,HRV,HRV_0145,2022-11-30 18:06:44
28,"[{'imgObject': {}, 'id': 'pear', 'src': '/static/foodstim60/pear.jpg', 'key': 'u', 'origWidth': 411, 'origHeight': 410, 'width': 411, 'height': 410, 'widthPercent': 0.45, 'rescaleHeight': False, 'trialN': 28, 'loaded': True, 'loadedTime': 51093.80000001192, 'positionName': 'LEFT', 'positionCoords': [357, 189.5], 'bid': 7.17}, {'imgObject': {}, 'id': 'banana', 'src': '/static/foodstim60/banana.jpg', 'key': 'i', 'origWidth': 410, 'origHeight': 410, 'width': 410, 'height': 410, 'widthPercent': 0.45, 'rescaleHeight': False, 'trialN': 28, 'loaded': True, 'loadedTime': 51094, 'positionName': 'RIGHT', 'positionCoords': [832, 189.5], 'bid': 5.58}]",51092.90000000596,1669831346039,pear,banana,7.17,5.58,-1.5899999999999999,,pear,1067,1068,1067.5,True,u,52676.10000000894,1583.2000000029802,1669831347623,1584,HRV,HRV_0145,2022-11-30 18:06:44
29,"[{'imgObject': {}, 'id': 'banana', 'src': '/static/foodstim60/banana.jpg', 'key': 'u', 'origWidth': 410, 'origHeight': 410, 'width': 410, 'height': 410, 'widthPercent': 0.45, 'rescaleHeight': False, 'trialN': 29, 'loaded': True, 'loadedTime': 52678.5, 'positionName': 'LEFT', 'positionCoords': [358, 189.5], 'bid': 5.58}, {'imgObject': {}, 'id': 'rigatoni', 'src': '/static/foodstim60/rigatoni.jpg', 'key': 'i', 'origWidth': 411, 'origHeight': 411, 'width': 411, 'height': 411, 'widthPercent': 0.45, 'rescaleHeight': False, 'trialN': 29, 'loaded': True, 'loadedTime': 52678.90000000596, 'positionName': 'RIGHT', 'positionCoords': [832, 189], 'bid': 5.48}]",52676.70000000298,1669831347623,banana,rigatoni,5.58,5.48,-0.09999999999999964,,banana,1450.7000000029802,1451,1451.2000000029802,True,u,54631.40000000596,1954.7000000029802,1669831349578,1955,HRV,HRV_0145,2022-11-30 18:06:44
30,"[{'imgObject': {}, 'id': 'sweetpotato', 'src': '/static/foodstim60/sweetpotato.jpg', 'key': 'u', 'origWidth': 410, 'origHeight': 410, 'width': 410, 'height': 410, 'widthPercent': 0.45, 'rescaleHeight': False, 'trialN': 30, 'loaded': True, 'loadedTime': 54633.90000000596, 'positionName': 'LEFT', 'positionCoords': [358, 189.5], 'bid': 1.65}, {'imgObject': {}, 'id': 'avocado', 'src': '/static/foodstim60/avocado.jpg', 'key': 'i', 'origWidth': 409, 'origHeight': 409, 'width': 409, 'height': 409, 'widthPercent': 0.45, 'rescaleHeight': False, 'trialN': 30, 'loaded': True, 'loadedTime': 54634.70000000298, 'positionName': 'RIGHT', 'positionCoords': [832, 190], 'bid': 0.42}]",54632.0,1669831349579,sweetpotato,avocado,1.65,0.42,-1.23,,sweetpotato,1336.300000011921,1336,1336.800000011921,True,u,56470.90000000596,1838.9000000059605,1669831351417,1838,HRV,HRV_0145,2022-11-30 18:06:44
31,"[{'imgObject': {}, 'id': 'rigatoni and sauce', 'src': '/static/foodstim60/rigatoni and sauce.jpg', 'key': 'u', 'origWidth': 410, 'origHeight': 411, 'width': 410, 'height': 411, 'widthPercent': 0.45, 'rescaleHeight': False, 'trialN': 31, 'loaded': True, 'loadedTime': 56472.20000000298, 'positionName': 'LEFT', 'positionCoords': [358, 189], 'bid': 7.91}, {'imgObject': {}, 'id': 'ice cream sundae 002', 'src': '/static/foodstim60/ice cream sundae 002.jpg', 'key': 'i', 'origWidth': 409, 'origHeight': 409, 'width': 409, 'height': 409, 'widthPercent': 0.45, 'rescaleHeight': False, 'trialN': 31, 'loaded': True, 'loadedTime': 56472.40000000596, 'positionName': 'RIGHT', 'positionCoords': [832, 190], 'bid': 7.45}]",56471.30000001192,1669831351418,rigatoni and sauce,ice cream sundae 002,7.91,7.45,-0.45999999999999996,,rigatoni and sauce,1008.5,1009,1009.0,True,u,58003.0,1531.699999988079,1669831352950,1532,HRV,HRV_0145,2022-11-30 18:06:44
32,"[{'imgObject': {}, 'id': 'Grapes', 'src': '/static/foodstim60/Grapes.jpg', 'key': 'u', 'origWidth': 411, 'origHeight': 411, 'width': 411, 'height': 411, 'widthPercent': 0.45, 'rescaleHeight': False, 'trialN': 32, 'loaded': True, 'loadedTime': 58005.40000000596, 'positionName': 'LEFT', 'positionCoords': [357, 189], 'bid': 7.07}, {'imgObject': {}, 'id': 'grilled chicken strips', 'src': '/static/foodstim60/grilled chicken strips.jpg', 'key': 'i', 'origWidth': 410, 'origHeight': 411, 'width': 410, 'height': 411, 'widthPercent': 0.45, 'rescaleHeight': False, 'trialN': 32, 'loaded': True, 'loadedTime': 58005.60000000894, 'positionName': 'RIGHT', 'positionCoords': [832, 189], 'bid': 8.14}]",58003.5,1669831352950,Grapes,grilled chicken strips,7.07,8.14,1.0700000000000003,,grilled chicken strips,931.8000000119209,932,932.3000000119209,True,i,59445.90000000596,1442.4000000059605,1669831354392,1442,HRV,HRV_0145,2022-11-30 18:06:44
33,"[{'imgObject': {}, 'id': 'apple slices', 'src': '/static/foodstim60/apple slices.jpg', 'key': 'u', 'origWidth': 409, 'origHeight': 410, 'width': 409, 'height': 410, 'widthPercent': 0.45, 'rescaleHeight': False, 'trialN': 33, 'loaded': True, 'loadedTime': 59448.30000001192, 'positionName': 'LEFT', 'positionCoords': [359, 189.5], 'bid': 7.03}, {'imgObject': {}, 'id': 'luckycharms', 'src': '/static/foodstim60/luckycharms.jpg', 'key': 'i', 'origWidth': 410, 'origHeight': 409, 'width': 410, 'height': 409, 'widthPercent': 0.45, 'rescaleHeight': False, 'trialN': 33, 'loaded': True, 'loadedTime': 59448.60000000894, 'positionName': 'RIGHT', 'positionCoords': [832, 190], 'bid': 6.91}]",59446.5,1669831354393,apple slices,luckycharms,7.03,6.91,-0.1200000000000001,,apple slices,1281.6000000089407,1282,1282.0,True,u,61246.80000001192,1800.300000011921,1669831356193,1800,HRV,HRV_0145,2022-11-30 18:06:44
34,"[{'imgObject': {}, 'id': 'hashbrowns', 'src': '/static/foodstim60/hashbrowns.jpg', 'key': 'u', 'origWidth': 411, 'origHeight': 410, 'width': 411, 'height': 410, 'widthPercent': 0.45, 'rescaleHeight': False, 'trialN': 34, 'loaded': True, 'loadedTime': 61249.20000000298, 'positionName': 'LEFT', 'positionCoords': [357, 189.5], 'bid': 4.46}, {'imgObject': {}, 'id': 'shreddedwheatwithmilk', 'src': '/static/foodstim60/shreddedwheatwithmilk.jpg', 'key': 'i', 'origWidth': 410, 'origHeight': 410, 'width': 410, 'height': 410, 'widthPercent': 0.45, 'rescaleHeight': False, 'trialN': 34, 'loaded': True, 'loadedTime': 61249.40000000596, 'positionName': 'RIGHT', 'positionCoords': [832, 189.5], 'bid': 4.21}]",61247.40000000596,1669831356194,hashbrowns,shreddedwheatwithmilk,4.46,4.21,-0.25,,shreddedwheatwithmilk,1558.7000000029802,1559,1559.0,True,i,63319.0,2071.5999999940395,1669831358266,2072,HRV,HRV_0145,2022-11-30 18:06:44
35,"[{'imgObject': {}, 'id': 'roastedpotatoes', 'src': '/static/foodstim60/roastedpotatoes.jpg', 'key': 'u', 'origWidth': 409, 'origHeight': 410, 'width': 409, 'height': 410, 'widthPercent': 0.45, 'rescaleHeight': False, 'trialN': 35, 'loaded': True, 'loadedTime': 63320.30000001192, 'positionName': 'LEFT', 'positionCoords': [359, 189.5], 'bid': 5.57}, {'imgObject': {}, 'id': 'burrito', 'src': '/static/foodstim60/burrito.jpg', 'key': 'i', 'origWidth': 410, 'origHeight': 410, 'width': 410, 'height': 410, 'widthPercent': 0.45, 'rescaleHeight': False, 'trialN': 35, 'loaded': True, 'loadedTime': 63320.5, 'positionName': 'RIGHT', 'positionCoords': [832, 189.5], 'bid': 6.8}]",63319.30000001192,1669831358266,roastedpotatoes,burrito,5.57,6.8,1.2299999999999995,,burrito,1960.5,1961,1961.0,True,i,65794.20000000298,2474.8999999910593,1669831360741,2475,HRV,HRV_0145,2022-11-30 18:06:44
36,"[{'imgObject': {}, 'id': 'salmon', 'src': '/static/foodstim60/salmon.jpg', 'key': 'u', 'origWidth': 410, 'origHeight': 409, 'width': 410, 'height': 409, 'widthPercent': 0.45, 'rescaleHeight': False, 'trialN': 36, 'loaded': True, 'loadedTime': 65795.5, 'positionName': 'LEFT', 'positionCoords': [358, 190], 'bid': 0.13}, {'imgObject': {}, 'id': 'mac & cheese', 'src': '/static/foodstim60/mac & cheese.jpg', 'key': 'i', 'origWidth': 410, 'origHeight': 410, 'width': 410, 'height': 410, 'widthPercent': 0.45, 'rescaleHeight': False, 'trialN': 36, 'loaded': True, 'loadedTime': 65795.90000000596, 'positionName': 'RIGHT', 'positionCoords': [832, 189.5], 'bid': 4.66}]",65794.5,1669831360741,salmon,mac & cheese,0.13,4.66,4.53,,mac & cheese,1068.6000000089407,1069,1069.0,True,i,67372.40000000596,1577.9000000059605,1669831362319,1578,HRV,HRV_0145,2022-11-30 18:06:44
37,"[{'imgObject': {}, 'id': 'mashed potato', 'src': '/static/foodstim60/mashed potato.jpg', 'key': 'u', 'origWidth': 409, 'origHeight': 409, 'width': 409, 'height': 409, 'widthPercent': 0.45, 'rescaleHeight': False, 'trialN': 37, 'loaded': True, 'loadedTime': 67374.90000000596, 'positionName': 'LEFT', 'positionCoords': [359, 190], 'bid': 4.86}, {'imgObject': {}, 'id': 'froot loops w milk', 'src': '/static/foodstim60/froot loops w milk.jpg', 'key': 'i', 'origWidth': 410, 'origHeight': 410, 'width': 410, 'height': 410, 'widthPercent': 0.45, 'rescaleHeight': False, 'trialN': 37, 'loaded': True, 'loadedTime': 67375.20000000298, 'positionName': 'RIGHT', 'positionCoords': [832, 189.5], 'bid': 5.83}]",67372.90000000596,1669831362320,mashed potato,froot loops w milk,4.86,5.83,0.9699999999999998,,froot loops w milk,923.2000000029802,923,923.5,True,i,68819.40000000596,1446.5,1669831363766,1446,HRV,HRV_0145,2022-11-30 18:06:44
38,"[{'imgObject': {}, 'id': 'burrito', 'src': '/static/foodstim60/burrito.jpg', 'key': 'u', 'origWidth': 410, 'origHeight': 410, 'width': 410, 'height': 410, 'widthPercent': 0.45, 'rescaleHeight': False, 'trialN': 38, 'loaded': True, 'loadedTime': 68821.70000000298, 'positionName': 'LEFT', 'positionCoords': [358, 189.5], 'bid': 6.8}, {'imgObject': {}, 'id': 'sweetpotato', 'src': '/static/foodstim60/sweetpotato.jpg', 'key': 'i', 'origWidth': 410, 'origHeight': 410, 'width': 410, 'height': 410, 'widthPercent': 0.45, 'rescaleHeight': False, 'trialN': 38, 'loaded': True, 'loadedTime': 68821.90000000596, 'positionName': 'RIGHT', 'positionCoords': [832, 189.5], 'bid': 1.65}]",68819.90000000596,1669831363767,burrito,sweetpotato,6.8,1.65,-5.15,,burrito,956.2000000029802,956,956.5999999940395,True,u,70295.40000000596,1475.5,1669831365242,1475,HRV,HRV_0145,2022-11-30 18:06:44
39,"[{'imgObject': {}, 'id': 'blueberries', 'src': '/static/foodstim60/blueberries.jpg', 'key': 'u', 'origWidth': 411, 'origHeight': 411, 'width': 411, 'height': 411, 'widthPercent': 0.45, 'rescaleHeight': False, 'trialN': 39, 'loaded': True, 'loadedTime': 70298, 'positionName': 'LEFT', 'positionCoords': [357, 189], 'bid': 6.07}, {'imgObject': {}, 'id': 'lox', 'src': '/static/foodstim60/lox.jpg', 'key': 'i', 'origWidth': 410, 'origHeight': 411, 'width': 410, 'height': 411, 'widthPercent': 0.45, 'rescaleHeight': False, 'trialN': 39, 'loaded': True, 'loadedTime': 70298.5, 'positionName': 'RIGHT', 'positionCoords': [832, 189], 'bid': 0.08}]",70296.10000000894,1669831365243,blueberries,lox,6.07,0.08,-5.99,,blueberries,790.7999999970198,791,791.2000000029802,True,u,71598.40000000596,1302.2999999970198,1669831366545,1302,HRV,HRV_0145,2022-11-30 18:06:44
40,"[{'imgObject': {}, 'id': 'rigatoni', 'src': '/static/foodstim60/rigatoni.jpg', 'key': 'u', 'origWidth': 411, 'origHeight': 411, 'width': 411, 'height': 411, 'widthPercent': 0.45, 'rescaleHeight': False, 'trialN': 40, 'loaded': True, 'loadedTime': 71601.30000001192, 'positionName': 'LEFT', 'positionCoords': [357, 189], 'bid': 5.48}, {'imgObject': {}, 'id': 'roastedpotatoes', 'src': '/static/foodstim60/roastedpotatoes.jpg', 'key': 'i', 'origWidth': 409, 'origHeight': 410, 'width': 409, 'height': 410, 'widthPercent': 0.45, 'rescaleHeight': False, 'trialN': 40, 'loaded': True, 'loadedTime': 71601.80000001192, 'positionName': 'RIGHT', 'positionCoords': [832, 189.5], 'bid': 5.57}]",71599.30000001192,1669831366546,rigatoni,roastedpotatoes,5.48,5.57,0.08999999999999986,,roastedpotatoes,855.8999999910593,856,856.1999999880791,True,i,72968.0,1368.699999988079,1669831367915,1369,HRV,HRV_0145,2022-11-30 18:06:44
41,"[{'imgObject': {}, 'id': 'froot loops w milk', 'src': '/static/foodstim60/froot loops w milk.jpg', 'key': 'u', 'origWidth': 410, 'origHeight': 410, 'width': 410, 'height': 410, 'widthPercent': 0.45, 'rescaleHeight': False, 'trialN': 41, 'loaded': True, 'loadedTime': 72970.70000000298, 'positionName': 'LEFT', 'positionCoords': [358, 189.5], 'bid': 5.83}, {'imgObject': {}, 'id': 'banana', 'src': '/static/foodstim60/banana.jpg', 'key': 'i', 'origWidth': 410, 'origHeight': 410, 'width': 410, 'height': 410, 'widthPercent': 0.45, 'rescaleHeight': False, 'trialN': 41, 'loaded': True, 'loadedTime': 72971.40000000596, 'positionName': 'RIGHT', 'positionCoords': [832, 189.5], 'bid': 5.58}]",72968.60000000894,1669831367915,froot loops w milk,banana,5.83,5.58,-0.25,,froot loops w milk,943.2000000029802,944,943.7000000029802,True,u,74431.5,1462.8999999910593,1669831369378,1463,HRV,HRV_0145,2022-11-30 18:06:44
42,"[{'imgObject': {}, 'id': 'baked potato', 'src': '/static/foodstim60/baked potato.jpg', 'key': 'u', 'origWidth': 409, 'origHeight': 410, 'width': 409, 'height': 410, 'widthPercent': 0.45, 'rescaleHeight': False, 'trialN': 42, 'loaded': True, 'loadedTime': 74433.90000000596, 'positionName': 'LEFT', 'positionCoords': [359, 189.5], 'bid': 4.8500000000000005}, {'imgObject': {}, 'id': 'banana', 'src': '/static/foodstim60/banana.jpg', 'key': 'i', 'origWidth': 410, 'origHeight': 410, 'width': 410, 'height': 410, 'widthPercent': 0.45, 'rescaleHeight': False, 'trialN': 42, 'loaded': True, 'loadedTime': 74434.20000000298, 'positionName': 'RIGHT', 'positionCoords': [832, 189.5], 'bid': 5.58}]",74432.10000000894,1669831369379,baked potato,banana,4.8500000000000005,5.58,0.7299999999999995,,baked potato,1015.8999999910593,1016,1016.3999999910593,True,u,75967.10000000894,1535.0,1669831370914,1535,HRV,HRV_0145,2022-11-30 18:06:44
43,"[{'imgObject': {}, 'id': 'popsicles', 'src': '/static/foodstim60/popsicles.jpg', 'key': 'u', 'origWidth': 410, 'origHeight': 410, 'width': 410, 'height': 410, 'widthPercent': 0.45, 'rescaleHeight': False, 'trialN': 43, 'loaded': True, 'loadedTime': 75969.60000000894, 'positionName': 'LEFT', 'positionCoords': [358, 189.5], 'bid': 6.5200000000000005}, {'imgObject': {}, 'id': 'turkey sandwich', 'src': '/static/foodstim60/turkey sandwich.jpg', 'key': 'i', 'origWidth': 409, 'origHeight': 409, 'width': 409, 'height': 409, 'widthPercent': 0.45, 'rescaleHeight': False, 'trialN': 43, 'loaded': True, 'loadedTime': 75969.90000000596, 'positionName': 'RIGHT', 'positionCoords': [832, 190], 'bid': 8.02}]",75967.70000000298,1669831370914,popsicles,turkey sandwich,6.5200000000000005,8.02,1.4999999999999991,,turkey sandwich,696.1000000089407,697,696.7000000029802,True,i,77181.5,1213.7999999970198,1669831372128,1214,HRV,HRV_0145,2022-11-30 18:06:44
44,"[{'imgObject': {}, 'id': 'steak', 'src': '/static/foodstim60/steak.jpg', 'key': 'u', 'origWidth': 410, 'origHeight': 410, 'width': 410, 'height': 410, 'widthPercent': 0.45, 'rescaleHeight': False, 'trialN': 44, 'loaded': True, 'loadedTime': 77183, 'positionName': 'LEFT', 'positionCoords': [358, 189.5], 'bid': 8.57}, {'imgObject': {}, 'id': 'fried eggs', 'src': '/static/foodstim60/fried eggs.jpg', 'key': 'i', 'origWidth': 410, 'origHeight': 410, 'width': 410, 'height': 410, 'widthPercent': 0.45, 'rescaleHeight': False, 'trialN': 44, 'loaded': True, 'loadedTime': 77183.5, 'positionName': 'RIGHT', 'positionCoords': [832, 189.5], 'bid': 5.12}]",77181.80000001192,1669831372128,steak,fried eggs,8.57,5.12,-3.45,,steak,722.6999999880791,724,723.0999999940395,True,u,78427.20000000298,1245.3999999910593,1669831373374,1246,HRV,HRV_0145,2022-11-30 18:06:44
45,"[{'imgObject': {}, 'id': 'hashbrowns', 'src': '/static/foodstim60/hashbrowns.jpg', 'key': 'u', 'origWidth': 411, 'origHeight': 410, 'width': 411, 'height': 410, 'widthPercent': 0.45, 'rescaleHeight': False, 'trialN': 45, 'loaded': True, 'loadedTime': 78428.80000001192, 'positionName': 'LEFT', 'positionCoords': [357, 189.5], 'bid': 4.46}, {'imgObject': {}, 'id': 'sushi w_condiments', 'src': '/static/foodstim60/sushi w_condiments.jpg', 'key': 'i', 'origWidth': 410, 'origHeight': 410, 'width': 410, 'height': 410, 'widthPercent': 0.45, 'rescaleHeight': False, 'trialN': 45, 'loaded': True, 'loadedTime': 78429.20000000298, 'positionName': 'RIGHT', 'positionCoords': [832, 189.5], 'bid': 0}]",78427.70000000298,1669831373374,hashbrowns,sushi w_condiments,4.46,0.0,-4.46,,hashbrowns,1099.9000000059605,1101,1100.4000000059605,True,u,80030.0,1602.2999999970198,1669831374977,1603,HRV,HRV_0145,2022-11-30 18:06:44
46,"[{'imgObject': {}, 'id': 'lox', 'src': '/static/foodstim60/lox.jpg', 'key': 'u', 'origWidth': 410, 'origHeight': 411, 'width': 410, 'height': 411, 'widthPercent': 0.45, 'rescaleHeight': False, 'trialN': 46, 'loaded': True, 'loadedTime': 80032.20000000298, 'positionName': 'LEFT', 'positionCoords': [358, 189], 'bid': 0.08}, {'imgObject': {}, 'id': 'granola w milk', 'src': '/static/foodstim60/granola w milk.jpg', 'key': 'i', 'origWidth': 410, 'origHeight': 410, 'width': 410, 'height': 410, 'widthPercent': 0.45, 'rescaleHeight': False, 'trialN': 46, 'loaded': True, 'loadedTime': 80032.90000000596, 'positionName': 'RIGHT', 'positionCoords': [832, 189.5], 'bid': 4.73}]",80030.5,1669831374977,lox,granola w milk,0.08,4.73,4.65,,granola w milk,792.8000000119209,793,793.3000000119209,True,i,81334.90000000596,1304.4000000059605,1669831376282,1305,HRV,HRV_0145,2022-11-30 18:06:44
47,"[{'imgObject': {}, 'id': 'burger', 'src': '/static/foodstim60/burger.jpg', 'key': 'u', 'origWidth': 409, 'origHeight': 409, 'width': 409, 'height': 409, 'widthPercent': 0.45, 'rescaleHeight': False, 'trialN': 47, 'loaded': True, 'loadedTime': 81337.30000001192, 'positionName': 'LEFT', 'positionCoords': [359, 190], 'bid': 7.41}, {'imgObject': {}, 'id': 'corn cob', 'src': '/static/foodstim60/corn cob.jpg', 'key': 'i', 'origWidth': 411, 'origHeight': 411, 'width': 411, 'height': 411, 'widthPercent': 0.45, 'rescaleHeight': False, 'trialN': 47, 'loaded': True, 'loadedTime': 81337.70000000298, 'positionName': 'RIGHT', 'positionCoords': [832, 189], 'bid': 4.67}]",81335.5,1669831376282,burger,corn cob,7.41,4.67,-2.74,,burger,848.4000000059605,849,848.8000000119209,True,u,82704.70000000298,1369.2000000029802,1669831377651,1369,HRV,HRV_0145,2022-11-30 18:06:44
48,"[{'imgObject': {}, 'id': 'eggsalad', 'src': '/static/foodstim60/eggsalad.jpg', 'key': 'u', 'origWidth': 410, 'origHeight': 409, 'width': 410, 'height': 409, 'widthPercent': 0.45, 'rescaleHeight': False, 'trialN': 48, 'loaded': True, 'loadedTime': 82707.40000000596, 'positionName': 'LEFT', 'positionCoords': [358, 190], 'bid': 0.12}, {'imgObject': {}, 'id': 'sushi w_condiments', 'src': '/static/foodstim60/sushi w_condiments.jpg', 'key': 'i', 'origWidth': 410, 'origHeight': 410, 'width': 410, 'height': 410, 'widthPercent': 0.45, 'rescaleHeight': False, 'trialN': 48, 'loaded': True, 'loadedTime': 82708, 'positionName': 'RIGHT', 'positionCoords': [832, 189.5], 'bid': 0}]",82705.5,1669831377652,eggsalad,sushi w_condiments,0.12,0.0,-0.12,,eggsalad,2510.4000000059605,2511,2510.800000011921,True,u,85738.0,3032.5,1669831380685,3033,HRV,HRV_0145,2022-11-30 18:06:44
49,"[{'imgObject': {}, 'id': 'rigatoni', 'src': '/static/foodstim60/rigatoni.jpg', 'key': 'u', 'origWidth': 411, 'origHeight': 411, 'width': 411, 'height': 411, 'widthPercent': 0.45, 'rescaleHeight': False, 'trialN': 49, 'loaded': True, 'loadedTime': 85740, 'positionName': 'LEFT', 'positionCoords': [357, 189], 'bid': 5.48}, {'imgObject': {}, 'id': 'veggieswithdip', 'src': '/static/foodstim60/veggieswithdip.jpg', 'key': 'i', 'origWidth': 409, 'origHeight': 409, 'width': 409, 'height': 409, 'widthPercent': 0.45, 'rescaleHeight': False, 'trialN': 49, 'loaded': True, 'loadedTime': 85740.20000000298, 'positionName': 'RIGHT', 'positionCoords': [832, 190], 'bid': 4.08}]",85738.60000000894,1669831380685,rigatoni,veggieswithdip,5.48,4.08,-1.4000000000000004,,rigatoni,1373.3999999910593,1374,1373.8999999910593,True,u,87633.10000000894,1894.5,1669831382580,1895,HRV,HRV_0145,2022-11-30 18:06:44
50,"[{'imgObject': {}, 'id': 'froot loops w milk', 'src': '/static/foodstim60/froot loops w milk.jpg', 'key': 'u', 'origWidth': 410, 'origHeight': 410, 'width': 410, 'height': 410, 'widthPercent': 0.45, 'rescaleHeight': False, 'trialN': 50, 'loaded': True, 'loadedTime': 87635.80000001192, 'positionName': 'LEFT', 'positionCoords': [358, 189.5], 'bid': 5.83}, {'imgObject': {}, 'id': 'seaweed', 'src': '/static/foodstim60/seaweed.jpg', 'key': 'i', 'origWidth': 410, 'origHeight': 410, 'width': 410, 'height': 410, 'widthPercent': 0.45, 'rescaleHeight': False, 'trialN': 50, 'loaded': True, 'loadedTime': 87636.20000000298, 'positionName': 'RIGHT', 'positionCoords': [832, 189.5], 'bid': 0}]",87633.90000000596,1669831382580,froot loops w milk,seaweed,5.83,0.0,-5.83,,froot loops w milk,789.7999999970198,791,790.2000000029802,True,u,88941.20000000298,1307.2999999970198,1669831383888,1308,HRV,HRV_0145,2022-11-30 18:06:44
51,"[{'imgObject': {}, 'id': 'Tribe humus pita', 'src': '/static/foodstim60/Tribe humus pita.jpg', 'key': 'u', 'origWidth': 411, 'origHeight': 411, 'width': 411, 'height': 411, 'widthPercent': 0.45, 'rescaleHeight': False, 'trialN': 51, 'loaded': True, 'loadedTime': 88943.60000000894, 'positionName': 'LEFT', 'positionCoords': [357, 189], 'bid': 5.28}, {'imgObject': {}, 'id': 'chicken nuggets2', 'src': '/static/foodstim60/chicken nuggets2.jpg', 'key': 'i', 'origWidth': 410, 'origHeight': 409, 'width': 410, 'height': 409, 'widthPercent': 0.45, 'rescaleHeight': False, 'trialN': 51, 'loaded': True, 'loadedTime': 88943.90000000596, 'positionName': 'RIGHT', 'positionCoords': [832, 190], 'bid': 8.57}]",88941.70000000298,1669831383888,Tribe humus pita,chicken nuggets2,5.28,8.57,3.29,,chicken nuggets2,969.2000000029802,970,969.6000000089407,True,i,90419.90000000596,1478.2000000029802,1669831385366,1478,HRV,HRV_0145,2022-11-30 18:06:44
52,"[{'imgObject': {}, 'id': 'fruitsalad', 'src': '/static/foodstim60/fruitsalad.jpg', 'key': 'u', 'origWidth': 410, 'origHeight': 410, 'width': 410, 'height': 410, 'widthPercent': 0.45, 'rescaleHeight': False, 'trialN': 52, 'loaded': True, 'loadedTime': 90422.30000001192, 'positionName': 'LEFT', 'positionCoords': [358, 189.5], 'bid': 8.81}, {'imgObject': {}, 'id': 'turkey sandwich', 'src': '/static/foodstim60/turkey sandwich.jpg', 'key': 'i', 'origWidth': 409, 'origHeight': 409, 'width': 409, 'height': 409, 'widthPercent': 0.45, 'rescaleHeight': False, 'trialN': 52, 'loaded': True, 'loadedTime': 90422.60000000894, 'positionName': 'RIGHT', 'positionCoords': [832, 190], 'bid': 8.02}]",90420.40000000596,1669831385367,fruitsalad,turkey sandwich,8.81,8.02,-0.7900000000000009,,fruitsalad,1547.5999999940395,1548,1548.0999999940395,True,u,92490.10000000894,2069.7000000029802,1669831387437,2070,HRV,HRV_0145,2022-11-30 18:06:44
53,"[{'imgObject': {}, 'id': 'pear', 'src': '/static/foodstim60/pear.jpg', 'key': 'u', 'origWidth': 411, 'origHeight': 410, 'width': 411, 'height': 410, 'widthPercent': 0.45, 'rescaleHeight': False, 'trialN': 53, 'loaded': True, 'loadedTime': 92492.5, 'positionName': 'LEFT', 'positionCoords': [357, 189.5], 'bid': 7.17}, {'imgObject': {}, 'id': 'yogurt no spoon', 'src': '/static/foodstim60/yogurt no spoon.jpg', 'key': 'i', 'origWidth': 411, 'origHeight': 410, 'width': 411, 'height': 410, 'widthPercent': 0.45, 'rescaleHeight': False, 'trialN': 53, 'loaded': True, 'loadedTime': 92493.20000000298, 'positionName': 'RIGHT', 'positionCoords': [832, 189.5], 'bid': 7.1000000000000005}]",92490.70000000298,1669831387437,pear,yogurt no spoon,7.17,7.1000000000000005,-0.0699999999999994,,pear,772.4000000059605,773,772.6000000089407,True,u,93768.20000000298,1277.5,1669831388715,1278,HRV,HRV_0145,2022-11-30 18:06:44
54,"[{'imgObject': {}, 'id': 'granola w milk', 'src': '/static/foodstim60/granola w milk.jpg', 'key': 'u', 'origWidth': 410, 'origHeight': 410, 'width': 410, 'height': 410, 'widthPercent': 0.45, 'rescaleHeight': False, 'trialN': 54, 'loaded': True, 'loadedTime': 93770.70000000298, 'positionName': 'LEFT', 'positionCoords': [358, 189.5], 'bid': 4.73}, {'imgObject': {}, 'id': 'sweetpotato', 'src': '/static/foodstim60/sweetpotato.jpg', 'key': 'i', 'origWidth': 410, 'origHeight': 410, 'width': 410, 'height': 410, 'widthPercent': 0.45, 'rescaleHeight': False, 'trialN': 54, 'loaded': True, 'loadedTime': 93771, 'positionName': 'RIGHT', 'positionCoords': [832, 189.5], 'bid': 1.65}]",93768.80000001192,1669831388715,granola w milk,sweetpotato,4.73,1.65,-3.0800000000000005,,granola w milk,1502.8999999910593,1504,1503.2999999970198,True,u,95790.10000000894,2021.2999999970198,1669831390737,2022,HRV,HRV_0145,2022-11-30 18:06:44
55,"[{'imgObject': {}, 'id': 'fried eggs', 'src': '/static/foodstim60/fried eggs.jpg', 'key': 'u', 'origWidth': 410, 'origHeight': 410, 'width': 410, 'height': 410, 'widthPercent': 0.45, 'rescaleHeight': False, 'trialN': 55, 'loaded': True, 'loadedTime': 95792.5, 'positionName': 'LEFT', 'positionCoords': [358, 189.5], 'bid': 5.12}, {'imgObject': {}, 'id': 'bagel and cc', 'src': '/static/foodstim60/bagel and cc.jpg', 'key': 'i', 'origWidth': 410, 'origHeight': 410, 'width': 410, 'height': 410, 'widthPercent': 0.45, 'rescaleHeight': False, 'trialN': 55, 'loaded': True, 'loadedTime': 95792.80000001192, 'positionName': 'RIGHT', 'positionCoords': [832, 189.5], 'bid': 5.05}]",95790.60000000894,1669831390737,fried eggs,bagel and cc,5.12,5.05,-0.07000000000000028,,fried eggs,1720.2000000029802,1720,1720.5999999940395,True,u,98014.5,2223.8999999910593,1669831392960,2223,HRV,HRV_0145,2022-11-30 18:06:44
56,"[{'imgObject': {}, 'id': 'steak', 'src': '/static/foodstim60/steak.jpg', 'key': 'u', 'origWidth': 410, 'origHeight': 410, 'width': 410, 'height': 410, 'widthPercent': 0.45, 'rescaleHeight': False, 'trialN': 56, 'loaded': True, 'loadedTime': 98016.80000001192, 'positionName': 'LEFT', 'positionCoords': [358, 189.5], 'bid': 8.57}, {'imgObject': {}, 'id': 'ice cream sundae 002', 'src': '/static/foodstim60/ice cream sundae 002.jpg', 'key': 'i', 'origWidth': 409, 'origHeight': 409, 'width': 409, 'height': 409, 'widthPercent': 0.45, 'rescaleHeight': False, 'trialN': 56, 'loaded': True, 'loadedTime': 98017.20000000298, 'positionName': 'RIGHT', 'positionCoords': [832, 190], 'bid': 7.45}]",98015.10000000894,1669831392961,steak,ice cream sundae 002,8.57,7.45,-1.12,,steak,928.8999999910593,929,929.3999999910593,True,u,99462.5,1447.3999999910593,1669831394408,1447,HRV,HRV_0145,2022-11-30 18:06:44
57,"[{'imgObject': {}, 'id': 'cherry tomato', 'src': '/static/foodstim60/cherry tomato.jpg', 'key': 'u', 'origWidth': 410, 'origHeight': 410, 'width': 410, 'height': 410, 'widthPercent': 0.45, 'rescaleHeight': False, 'trialN': 57, 'loaded': True, 'loadedTime': 99465, 'positionName': 'LEFT', 'positionCoords': [358, 189.5], 'bid': 2.98}, {'imgObject': {}, 'id': 'luckycharms', 'src': '/static/foodstim60/luckycharms.jpg', 'key': 'i', 'origWidth': 410, 'origHeight': 409, 'width': 410, 'height': 409, 'widthPercent': 0.45, 'rescaleHeight': False, 'trialN': 57, 'loaded': True, 'loadedTime': 99465.5, 'positionName': 'RIGHT', 'positionCoords': [832, 190], 'bid': 6.91}]",99463.10000000894,1669831394409,cherry tomato,luckycharms,2.98,6.91,3.93,,luckycharms,967.2000000029802,967,967.5,True,i,100940.20000000298,1477.0999999940395,1669831395886,1477,HRV,HRV_0145,2022-11-30 18:06:44
58,"[{'imgObject': {}, 'id': 'hotdog w must', 'src': '/static/foodstim60/hotdog w must.jpg', 'key': 'u', 'origWidth': 409, 'origHeight': 409, 'width': 409, 'height': 409, 'widthPercent': 0.45, 'rescaleHeight': False, 'trialN': 58, 'loaded': True, 'loadedTime': 100942.80000001192, 'positionName': 'LEFT', 'positionCoords': [359, 190], 'bid': 5.91}, {'imgObject': {}, 'id': 'Tribe humus pita', 'src': '/static/foodstim60/Tribe humus pita.jpg', 'key': 'i', 'origWidth': 411, 'origHeight': 411, 'width': 411, 'height': 411, 'widthPercent': 0.45, 'rescaleHeight': False, 'trialN': 58, 'loaded': True, 'loadedTime': 100943.30000001192, 'positionName': 'RIGHT', 'positionCoords': [832, 189], 'bid': 5.28}]",100940.80000001192,1669831395887,hotdog w must,Tribe humus pita,5.91,5.28,-0.6299999999999999,,hotdog w must,1403.0999999940395,1403,1403.699999988079,True,u,102865.60000000894,1924.7999999970198,1669831397811,1924,HRV,HRV_0145,2022-11-30 18:06:44
59,"[{'imgObject': {}, 'id': 'veggieswithdip', 'src': '/static/foodstim60/veggieswithdip.jpg', 'key': 'u', 'origWidth': 409, 'origHeight': 409, 'width': 409, 'height': 409, 'widthPercent': 0.45, 'rescaleHeight': False, 'trialN': 59, 'loaded': True, 'loadedTime': 102868.10000000894, 'positionName': 'LEFT', 'positionCoords': [359, 190], 'bid': 4.08}, {'imgObject': {}, 'id': 'hashbrowns', 'src': '/static/foodstim60/hashbrowns.jpg', 'key': 'i', 'origWidth': 411, 'origHeight': 410, 'width': 411, 'height': 410, 'widthPercent': 0.45, 'rescaleHeight': False, 'trialN': 59, 'loaded': True, 'loadedTime': 102868.40000000596, 'positionName': 'RIGHT', 'positionCoords': [832, 189.5], 'bid': 4.46}]",102866.10000000894,1669831397812,veggieswithdip,hashbrowns,4.08,4.46,0.3799999999999999,,veggieswithdip,1165.7999999970198,1166,1166.2999999970198,True,u,104545.5,1679.3999999910593,1669831399491,1679,HRV,HRV_0145,2022-11-30 18:06:44
60,"[{'imgObject': {}, 'id': 'blackbeanswithrice', 'src': '/static/foodstim60/blackbeanswithrice.jpg', 'key': 'u', 'origWidth': 410, 'origHeight': 410, 'width': 410, 'height': 410, 'widthPercent': 0.45, 'rescaleHeight': False, 'trialN': 60, 'loaded': True, 'loadedTime': 104547.40000000596, 'positionName': 'LEFT', 'positionCoords': [358, 189.5], 'bid': 5.43}, {'imgObject': {}, 'id': 'mango', 'src': '/static/foodstim60/mango.jpg', 'key': 'i', 'origWidth': 411, 'origHeight': 411, 'width': 411, 'height': 411, 'widthPercent': 0.45, 'rescaleHeight': False, 'trialN': 60, 'loaded': True, 'loadedTime': 104547.60000000894, 'positionName': 'RIGHT', 'positionCoords': [832, 189], 'bid': 5.93}]",104546.0,1669831399492,blackbeanswithrice,mango,5.43,5.93,0.5,,mango,1717.6000000089407,1718,1717.9000000059605,True,i,106766.40000000596,2220.4000000059605,1669831401712,2220,HRV,HRV_0145,2022-11-30 18:06:44
61,"[{'imgObject': {}, 'id': 'bagel plain', 'src': '/static/foodstim60/bagel plain.jpg', 'key': 'u', 'origWidth': 410, 'origHeight': 410, 'width': 410, 'height': 410, 'widthPercent': 0.45, 'rescaleHeight': False, 'trialN': 61, 'loaded': True, 'loadedTime': 106768.80000001192, 'positionName': 'LEFT', 'positionCoords': [358, 189.5], 'bid': 5}, {'imgObject': {}, 'id': 'avocado', 'src': '/static/foodstim60/avocado.jpg', 'key': 'i', 'origWidth': 409, 'origHeight': 409, 'width': 409, 'height': 409, 'widthPercent': 0.45, 'rescaleHeight': False, 'trialN': 61, 'loaded': True, 'loadedTime': 106769, 'positionName': 'RIGHT', 'positionCoords': [832, 190], 'bid': 0.42}]",106766.90000000596,1669831401713,bagel plain,avocado,5.0,0.42,-4.58,,bagel plain,1440.0999999940395,1440,1440.4000000059605,True,u,108716.40000000596,1949.5,1669831403662,1949,HRV,HRV_0145,2022-11-30 18:06:44
62,"[{'imgObject': {}, 'id': 'mango', 'src': '/static/foodstim60/mango.jpg', 'key': 'u', 'origWidth': 411, 'origHeight': 411, 'width': 411, 'height': 411, 'widthPercent': 0.45, 'rescaleHeight': False, 'trialN': 62, 'loaded': True, 'loadedTime': 108717.80000001192, 'positionName': 'LEFT', 'positionCoords': [357, 189], 'bid': 5.93}, {'imgObject': {}, 'id': 'olives', 'src': '/static/foodstim60/olives.jpg', 'key': 'i', 'origWidth': 410, 'origHeight': 410, 'width': 410, 'height': 410, 'widthPercent': 0.45, 'rescaleHeight': False, 'trialN': 62, 'loaded': True, 'loadedTime': 108718, 'positionName': 'RIGHT', 'positionCoords': [832, 189.5], 'bid': 0.07}]",108716.80000001192,1669831403663,mango,olives,5.93,0.07,-5.859999999999999,,mango,1034.3999999910593,1034,1034.699999988079,True,u,110261.10000000894,1544.2999999970198,1669831405207,1544,HRV,HRV_0145,2022-11-30 18:06:44
63,"[{'imgObject': {}, 'id': 'popsicles', 'src': '/static/foodstim60/popsicles.jpg', 'key': 'u', 'origWidth': 410, 'origHeight': 410, 'width': 410, 'height': 410, 'widthPercent': 0.45, 'rescaleHeight': False, 'trialN': 63, 'loaded': True, 'loadedTime': 110262.80000001192, 'positionName': 'LEFT', 'positionCoords': [358, 189.5], 'bid': 6.5200000000000005}, {'imgObject': {}, 'id': 'raspberries', 'src': '/static/foodstim60/raspberries.jpg', 'key': 'i', 'origWidth': 411, 'origHeight': 411, 'width': 411, 'height': 411, 'widthPercent': 0.45, 'rescaleHeight': False, 'trialN': 63, 'loaded': True, 'loadedTime': 110263.20000000298, 'positionName': 'RIGHT', 'positionCoords': [832, 189], 'bid': 6.42}]",110261.60000000894,1669831405207,popsicles,raspberries,6.5200000000000005,6.42,-0.10000000000000053,,popsicles,976.7999999970198,978,977.0999999940395,True,u,111741.40000000596,1479.7999999970198,1669831406687,1480,HRV,HRV_0145,2022-11-30 18:06:44
64,"[{'imgObject': {}, 'id': 'popsicles', 'src': '/static/foodstim60/popsicles.jpg', 'key': 'u', 'origWidth': 410, 'origHeight': 410, 'width': 410, 'height': 410, 'widthPercent': 0.45, 'rescaleHeight': False, 'trialN': 64, 'loaded': True, 'loadedTime': 111742.20000000298, 'positionName': 'LEFT', 'positionCoords': [358, 189.5], 'bid': 6.5200000000000005}, {'imgObject': {}, 'id': 'burrito', 'src': '/static/foodstim60/burrito.jpg', 'key': 'i', 'origWidth': 410, 'origHeight': 410, 'width': 410, 'height': 410, 'widthPercent': 0.45, 'rescaleHeight': False, 'trialN': 64, 'loaded': True, 'loadedTime': 111742.20000000298, 'positionName': 'RIGHT', 'positionCoords': [832, 189.5], 'bid': 6.8}]",111741.70000000298,1669831406687,popsicles,burrito,6.5200000000000005,6.8,0.27999999999999936,,burrito,865.4000000059605,866,865.7999999970198,True,i,113122.30000001192,1380.6000000089407,1669831408068,1381,HRV,HRV_0145,2022-11-30 18:06:44
65,"[{'imgObject': {}, 'id': 'bagel plain', 'src': '/static/foodstim60/bagel plain.jpg', 'key': 'u', 'origWidth': 410, 'origHeight': 410, 'width': 410, 'height': 410, 'widthPercent': 0.45, 'rescaleHeight': False, 'trialN': 65, 'loaded': True, 'loadedTime': 113123.60000000894, 'positionName': 'LEFT', 'positionCoords': [358, 189.5], 'bid': 5}, {'imgObject': {}, 'id': 'omelette', 'src': '/static/foodstim60/omelette.jpg', 'key': 'i', 'origWidth': 410, 'origHeight': 409, 'width': 410, 'height': 409, 'widthPercent': 0.45, 'rescaleHeight': False, 'trialN': 65, 'loaded': True, 'loadedTime': 113123.70000000298, 'positionName': 'RIGHT', 'positionCoords': [832, 190], 'bid': 4.98}]",113122.60000000894,1669831408068,bagel plain,omelette,5.0,4.98,-0.019999999999999574,,omelette,1452,1453,1452.2999999970198,True,i,115081.70000000298,1959.0999999940395,1669831410028,1960,HRV,HRV_0145,2022-11-30 18:06:44
66,"[{'imgObject': {}, 'id': 'hashbrowns', 'src': '/static/foodstim60/hashbrowns.jpg', 'key': 'u', 'origWidth': 411, 'origHeight': 410, 'width': 411, 'height': 410, 'widthPercent': 0.45, 'rescaleHeight': False, 'trialN': 66, 'loaded': True, 'loadedTime': 115082.90000000596, 'positionName': 'LEFT', 'positionCoords': [357, 189.5], 'bid': 4.46}, {'imgObject': {}, 'id': 'eggs', 'src': '/static/foodstim60/eggs.jpg', 'key': 'i', 'origWidth': 409, 'origHeight': 409, 'width': 409, 'height': 409, 'widthPercent': 0.45, 'rescaleHeight': False, 'trialN': 66, 'loaded': True, 'loadedTime': 115083, 'positionName': 'RIGHT', 'positionCoords': [832, 190], 'bid': 0.12}]",115082.0,1669831410028,hashbrowns,eggs,4.46,0.12,-4.34,,hashbrowns,996.6000000089407,997,997.0,True,u,116580.5,1498.5,1669831411526,1498,HRV,HRV_0145,2022-11-30 18:06:44
67,"[{'imgObject': {}, 'id': 'apple slices', 'src': '/static/foodstim60/apple slices.jpg', 'key': 'u', 'origWidth': 409, 'origHeight': 410, 'width': 409, 'height': 410, 'widthPercent': 0.45, 'rescaleHeight': False, 'trialN': 67, 'loaded': True, 'loadedTime': 116582.20000000298, 'positionName': 'LEFT', 'positionCoords': [359, 189.5], 'bid': 7.03}, {'imgObject': {}, 'id': 'turkey sandwich', 'src': '/static/foodstim60/turkey sandwich.jpg', 'key': 'i', 'origWidth': 409, 'origHeight': 409, 'width': 409, 'height': 409, 'widthPercent': 0.45, 'rescaleHeight': False, 'trialN': 67, 'loaded': True, 'loadedTime': 116582.80000001192, 'positionName': 'RIGHT', 'positionCoords': [832, 190], 'bid': 8.02}]",116581.0,1669831411527,apple slices,turkey sandwich,7.03,8.02,0.9899999999999993,,turkey sandwich,1218,1218,1218.300000011921,True,i,118300.10000000894,1719.1000000089407,1669831413246,1719,HRV,HRV_0145,2022-11-30 18:06:44
68,"[{'imgObject': {}, 'id': 'eggsalad', 'src': '/static/foodstim60/eggsalad.jpg', 'key': 'u', 'origWidth': 410, 'origHeight': 409, 'width': 410, 'height': 409, 'widthPercent': 0.45, 'rescaleHeight': False, 'trialN': 68, 'loaded': True, 'loadedTime': 118301.30000001192, 'positionName': 'LEFT', 'positionCoords': [358, 190], 'bid': 0.12}, {'imgObject': {}, 'id': 'mashed potato', 'src': '/static/foodstim60/mashed potato.jpg', 'key': 'i', 'origWidth': 409, 'origHeight': 409, 'width': 409, 'height': 409, 'widthPercent': 0.45, 'rescaleHeight': False, 'trialN': 68, 'loaded': True, 'loadedTime': 118301.5, 'positionName': 'RIGHT', 'positionCoords': [832, 190], 'bid': 4.86}]",118300.70000000298,1669831413246,eggsalad,mashed potato,0.12,4.86,4.74,,mashed potato,994,995,994.4000000059605,True,i,119801.5,1500.7999999970198,1669831414747,1501,HRV,HRV_0145,2022-11-30 18:06:44
69,"[{'imgObject': {}, 'id': 'cheerios', 'src': '/static/foodstim60/cheerios.jpg', 'key': 'u', 'origWidth': 409, 'origHeight': 410, 'width': 409, 'height': 410, 'widthPercent': 0.45, 'rescaleHeight': False, 'trialN': 69, 'loaded': True, 'loadedTime': 119802.80000001192, 'positionName': 'LEFT', 'positionCoords': [359, 189.5], 'bid': 3.86}, {'imgObject': {}, 'id': 'corn cob', 'src': '/static/foodstim60/corn cob.jpg', 'key': 'i', 'origWidth': 411, 'origHeight': 411, 'width': 411, 'height': 411, 'widthPercent': 0.45, 'rescaleHeight': False, 'trialN': 69, 'loaded': True, 'loadedTime': 119803.30000001192, 'positionName': 'RIGHT', 'positionCoords': [832, 189], 'bid': 4.67}]",119801.90000000596,1669831414748,cheerios,corn cob,3.86,4.67,0.81,,cheerios,893.0999999940395,893,893.4000000059605,True,u,121206.10000000894,1404.2000000029802,1669831416152,1404,HRV,HRV_0145,2022-11-30 18:06:44
70,"[{'imgObject': {}, 'id': 'sushi w_condiments', 'src': '/static/foodstim60/sushi w_condiments.jpg', 'key': 'u', 'origWidth': 410, 'origHeight': 410, 'width': 410, 'height': 410, 'widthPercent': 0.45, 'rescaleHeight': False, 'trialN': 70, 'loaded': True, 'loadedTime': 121207.40000000596, 'positionName': 'LEFT', 'positionCoords': [358, 189.5], 'bid': 0}, {'imgObject': {}, 'id': 'cherry tomato', 'src': '/static/foodstim60/cherry tomato.jpg', 'key': 'i', 'origWidth': 410, 'origHeight': 410, 'width': 410, 'height': 410, 'widthPercent': 0.45, 'rescaleHeight': False, 'trialN': 70, 'loaded': True, 'loadedTime': 121207.5, 'positionName': 'RIGHT', 'positionCoords': [832, 189.5], 'bid': 2.98}]",121206.5,1669831416152,sushi w_condiments,cherry tomato,0.0,2.98,2.98,,cherry tomato,816.4000000059605,817,816.8000000119209,True,i,122531.70000000298,1325.2000000029802,1669831417477,1325,HRV,HRV_0145,2022-11-30 18:06:44
71,"[{'imgObject': {}, 'id': 'turkey sandwich', 'src': '/static/foodstim60/turkey sandwich.jpg', 'key': 'u', 'origWidth': 409, 'origHeight': 409, 'width': 409, 'height': 409, 'widthPercent': 0.45, 'rescaleHeight': False, 'trialN': 71, 'loaded': True, 'loadedTime': 122533.40000000596, 'positionName': 'LEFT', 'positionCoords': [359, 190], 'bid': 8.02}, {'imgObject': {}, 'id': 'grilled chicken strips', 'src': '/static/foodstim60/grilled chicken strips.jpg', 'key': 'i', 'origWidth': 410, 'origHeight': 411, 'width': 410, 'height': 411, 'widthPercent': 0.45, 'rescaleHeight': False, 'trialN': 71, 'loaded': True, 'loadedTime': 122533.60000000894, 'positionName': 'RIGHT', 'positionCoords': [832, 189], 'bid': 8.14}]",122532.20000000298,1669831417478,turkey sandwich,grilled chicken strips,8.02,8.14,0.120000000000001,,turkey sandwich,1403.2000000029802,1404,1403.6000000089407,True,u,124440.10000000894,1907.9000000059605,1669831419386,1908,HRV,HRV_0145,2022-11-30 18:06:44
72,"[{'imgObject': {}, 'id': 'tacos', 'src': '/static/foodstim60/tacos.jpg', 'key': 'u', 'origWidth': 411, 'origHeight': 411, 'width': 411, 'height': 411, 'widthPercent': 0.45, 'rescaleHeight': False, 'trialN': 72, 'loaded': True, 'loadedTime': 124441.70000000298, 'positionName': 'LEFT', 'positionCoords': [357, 189], 'bid': 8.36}, {'imgObject': {}, 'id': 'burger', 'src': '/static/foodstim60/burger.jpg', 'key': 'i', 'origWidth': 409, 'origHeight': 409, 'width': 409, 'height': 409, 'widthPercent': 0.45, 'rescaleHeight': False, 'trialN': 72, 'loaded': True, 'loadedTime': 124442.10000000894, 'positionName': 'RIGHT', 'positionCoords': [832, 190], 'bid': 7.41}]",124440.60000000894,1669831419386,tacos,burger,8.36,7.41,-0.9499999999999993,,burger,1526.2999999970198,1527,1526.5999999940395,True,i,126480.90000000596,2040.2999999970198,1669831421427,2041,HRV,HRV_0145,2022-11-30 18:06:44
73,"[{'imgObject': {}, 'id': 'yogurt no spoon', 'src': '/static/foodstim60/yogurt no spoon.jpg', 'key': 'u', 'origWidth': 411, 'origHeight': 410, 'width': 411, 'height': 410, 'widthPercent': 0.45, 'rescaleHeight': False, 'trialN': 73, 'loaded': True, 'loadedTime': 126482.30000001192, 'positionName': 'LEFT', 'positionCoords': [357, 189.5], 'bid': 7.1000000000000005}, {'imgObject': {}, 'id': 'tacos', 'src': '/static/foodstim60/tacos.jpg', 'key': 'i', 'origWidth': 411, 'origHeight': 411, 'width': 411, 'height': 411, 'widthPercent': 0.45, 'rescaleHeight': False, 'trialN': 73, 'loaded': True, 'loadedTime': 126482.60000000894, 'positionName': 'RIGHT', 'positionCoords': [832, 189], 'bid': 8.36}]",126481.40000000596,1669831421427,yogurt no spoon,tacos,7.1000000000000005,8.36,1.259999999999999,,tacos,1356.7999999970198,1357,1357.0999999940395,True,i,128352.60000000894,1871.2000000029802,1669831423298,1871,HRV,HRV_0145,2022-11-30 18:06:44
74,"[{'imgObject': {}, 'id': 'hashbrowns', 'src': '/static/foodstim60/hashbrowns.jpg', 'key': 'u', 'origWidth': 411, 'origHeight': 410, 'width': 411, 'height': 410, 'widthPercent': 0.45, 'rescaleHeight': False, 'trialN': 74, 'loaded': True, 'loadedTime': 128355, 'positionName': 'LEFT', 'positionCoords': [357, 189.5], 'bid': 4.46}, {'imgObject': {}, 'id': 'pear', 'src': '/static/foodstim60/pear.jpg', 'key': 'i', 'origWidth': 411, 'origHeight': 410, 'width': 411, 'height': 410, 'widthPercent': 0.45, 'rescaleHeight': False, 'trialN': 74, 'loaded': True, 'loadedTime': 128355.40000000596, 'positionName': 'RIGHT', 'positionCoords': [832, 189.5], 'bid': 7.17}]",128353.30000001192,1669831423299,hashbrowns,pear,4.46,7.17,2.71,,pear,757.2999999970198,758,757.7999999970198,True,i,129619.90000000596,1266.5999999940395,1669831424566,1267,HRV,HRV_0145,2022-11-30 18:06:44
75,"[{'imgObject': {}, 'id': 'edamame', 'src': '/static/foodstim60/edamame.jpg', 'key': 'u', 'origWidth': 409, 'origHeight': 410, 'width': 409, 'height': 410, 'widthPercent': 0.45, 'rescaleHeight': False, 'trialN': 75, 'loaded': True, 'loadedTime': 129621.30000001192, 'positionName': 'LEFT', 'positionCoords': [359, 189.5], 'bid': 3.63}, {'imgObject': {}, 'id': 'cantaloupe', 'src': '/static/foodstim60/cantaloupe.jpg', 'key': 'i', 'origWidth': 409, 'origHeight': 409, 'width': 409, 'height': 409, 'widthPercent': 0.45, 'rescaleHeight': False, 'trialN': 75, 'loaded': True, 'loadedTime': 129621.5, 'positionName': 'RIGHT', 'positionCoords': [832, 190], 'bid': 7.01}]",129620.20000000298,1669831424566,edamame,cantaloupe,3.63,7.01,3.38,,cantaloupe,1106.9000000059605,1107,1107.2999999970198,True,i,131231.0,1610.7999999970198,1669831426177,1611,HRV,HRV_0145,2022-11-30 18:06:44
76,"[{'imgObject': {}, 'id': 'orange slices', 'src': '/static/foodstim60/orange slices.jpg', 'key': 'u', 'origWidth': 409, 'origHeight': 410, 'width': 409, 'height': 410, 'widthPercent': 0.45, 'rescaleHeight': False, 'trialN': 76, 'loaded': True, 'loadedTime': 131232.5, 'positionName': 'LEFT', 'positionCoords': [359, 189.5], 'bid': 6.3500000000000005}, {'imgObject': {}, 'id': 'blueberries', 'src': '/static/foodstim60/blueberries.jpg', 'key': 'i', 'origWidth': 411, 'origHeight': 411, 'width': 411, 'height': 411, 'widthPercent': 0.45, 'rescaleHeight': False, 'trialN': 76, 'loaded': True, 'loadedTime': 131232.70000000298, 'positionName': 'RIGHT', 'positionCoords': [832, 189], 'bid': 6.07}]",131231.30000001192,1669831426177,orange slices,blueberries,6.3500000000000005,6.07,-0.28000000000000025,,orange slices,847.5999999940395,848,847.8999999910593,True,u,132593.30000001192,1362.0,1669831427539,1362,HRV,HRV_0145,2022-11-30 18:06:44
77,"[{'imgObject': {}, 'id': 'granola w milk', 'src': '/static/foodstim60/granola w milk.jpg', 'key': 'u', 'origWidth': 410, 'origHeight': 410, 'width': 410, 'height': 410, 'widthPercent': 0.45, 'rescaleHeight': False, 'trialN': 77, 'loaded': True, 'loadedTime': 132594.5, 'positionName': 'LEFT', 'positionCoords': [358, 189.5], 'bid': 4.73}, {'imgObject': {}, 'id': 'corn cob', 'src': '/static/foodstim60/corn cob.jpg', 'key': 'i', 'origWidth': 411, 'origHeight': 411, 'width': 411, 'height': 411, 'widthPercent': 0.45, 'rescaleHeight': False, 'trialN': 77, 'loaded': True, 'loadedTime': 132594.70000000298, 'positionName': 'RIGHT', 'positionCoords': [832, 189], 'bid': 4.67}]",132593.70000000298,1669831427539,granola w milk,corn cob,4.73,4.67,-0.0600000000000005,,granola w milk,885,886,885.2000000029802,True,u,133989.60000000894,1395.9000000059605,1669831428935,1396,HRV,HRV_0145,2022-11-30 18:06:44
78,"[{'imgObject': {}, 'id': 'bagel and cc', 'src': '/static/foodstim60/bagel and cc.jpg', 'key': 'u', 'origWidth': 410, 'origHeight': 410, 'width': 410, 'height': 410, 'widthPercent': 0.45, 'rescaleHeight': False, 'trialN': 78, 'loaded': True, 'loadedTime': 133991, 'positionName': 'LEFT', 'positionCoords': [358, 189.5], 'bid': 5.05}, {'imgObject': {}, 'id': 'Tribe humus pita', 'src': '/static/foodstim60/Tribe humus pita.jpg', 'key': 'i', 'origWidth': 411, 'origHeight': 411, 'width': 411, 'height': 411, 'widthPercent': 0.45, 'rescaleHeight': False, 'trialN': 78, 'loaded': True, 'loadedTime': 133991.60000000894, 'positionName': 'RIGHT', 'positionCoords': [832, 189], 'bid': 5.28}]",133990.0,1669831428936,bagel and cc,Tribe humus pita,5.05,5.28,0.23000000000000043,,Tribe humus pita,1216.4000000059605,1217,1216.7000000029802,True,i,135712.30000001192,1722.300000011921,1669831430658,1722,HRV,HRV_0145,2022-11-30 18:06:44
79,"[{'imgObject': {}, 'id': 'blueberries', 'src': '/static/foodstim60/blueberries.jpg', 'key': 'u', 'origWidth': 411, 'origHeight': 411, 'width': 411, 'height': 411, 'widthPercent': 0.45, 'rescaleHeight': False, 'trialN': 79, 'loaded': True, 'loadedTime': 135714.10000000894, 'positionName': 'LEFT', 'positionCoords': [357, 189], 'bid': 6.07}, {'imgObject': {}, 'id': 'ice cream sundae 002', 'src': '/static/foodstim60/ice cream sundae 002.jpg', 'key': 'i', 'origWidth': 409, 'origHeight': 409, 'width': 409, 'height': 409, 'widthPercent': 0.45, 'rescaleHeight': False, 'trialN': 79, 'loaded': True, 'loadedTime': 135714.30000001192, 'positionName': 'RIGHT', 'positionCoords': [832, 190], 'bid': 7.45}]",135712.70000000298,1669831430659,blueberries,ice cream sundae 002,6.07,7.45,1.38,,ice cream sundae 002,774.2000000029802,774,774.6000000089407,True,i,137002.0,1289.2999999970198,1669831431948,1289,HRV,HRV_0145,2022-11-30 18:06:44
80,"[{'imgObject': {}, 'id': 'eggs', 'src': '/static/foodstim60/eggs.jpg', 'key': 'u', 'origWidth': 409, 'origHeight': 409, 'width': 409, 'height': 409, 'widthPercent': 0.45, 'rescaleHeight': False, 'trialN': 80, 'loaded': True, 'loadedTime': 137003.90000000596, 'positionName': 'LEFT', 'positionCoords': [359, 190], 'bid': 0.12}, {'imgObject': {}, 'id': 'orange slices', 'src': '/static/foodstim60/orange slices.jpg', 'key': 'i', 'origWidth': 409, 'origHeight': 410, 'width': 409, 'height': 410, 'widthPercent': 0.45, 'rescaleHeight': False, 'trialN': 80, 'loaded': True, 'loadedTime': 137004.20000000298, 'positionName': 'RIGHT', 'positionCoords': [832, 189.5], 'bid': 6.3500000000000005}]",137002.70000000298,1669831431948,eggs,orange slices,0.12,6.3500000000000005,6.23,,orange slices,861.1000000089407,862,861.6000000089407,True,i,138385.60000000894,1382.9000000059605,1669831433331,1383,HRV,HRV_0145,2022-11-30 18:06:44
81,"[{'imgObject': {}, 'id': 'shreddedwheatwithmilk', 'src': '/static/foodstim60/shreddedwheatwithmilk.jpg', 'key': 'u', 'origWidth': 410, 'origHeight': 410, 'width': 410, 'height': 410, 'widthPercent': 0.45, 'rescaleHeight': False, 'trialN': 81, 'loaded': True, 'loadedTime': 138387.10000000894, 'positionName': 'LEFT', 'positionCoords': [358, 189.5], 'bid': 4.21}, {'imgObject': {}, 'id': 'cheerios', 'src': '/static/foodstim60/cheerios.jpg', 'key': 'i', 'origWidth': 409, 'origHeight': 410, 'width': 409, 'height': 410, 'widthPercent': 0.45, 'rescaleHeight': False, 'trialN': 81, 'loaded': True, 'loadedTime': 138387.30000001192, 'positionName': 'RIGHT', 'positionCoords': [832, 189.5], 'bid': 3.86}]",138386.0,1669831433332,shreddedwheatwithmilk,cheerios,4.21,3.86,-0.3500000000000001,,cheerios,1860.1000000089407,1860,1860.5,True,i,140756.80000001192,2370.800000011921,1669831435703,2371,HRV,HRV_0145,2022-11-30 18:06:44
82,"[{'imgObject': {}, 'id': 'ice cream sundae 002', 'src': '/static/foodstim60/ice cream sundae 002.jpg', 'key': 'u', 'origWidth': 409, 'origHeight': 409, 'width': 409, 'height': 409, 'widthPercent': 0.45, 'rescaleHeight': False, 'trialN': 82, 'loaded': True, 'loadedTime': 140758.60000000894, 'positionName': 'LEFT', 'positionCoords': [359, 190], 'bid': 7.45}, {'imgObject': {}, 'id': 'salad w chicken', 'src': '/static/foodstim60/salad w chicken.jpg', 'key': 'i', 'origWidth': 411, 'origHeight': 411, 'width': 411, 'height': 411, 'widthPercent': 0.45, 'rescaleHeight': False, 'trialN': 82, 'loaded': True, 'loadedTime': 140758.80000001192, 'positionName': 'RIGHT', 'positionCoords': [832, 189], 'bid': 9.21}]",140757.30000001192,1669831435703,ice cream sundae 002,salad w chicken,7.45,9.21,1.7600000000000007,,salad w chicken,729.7999999970198,730,730.0999999940395,True,i,141999.30000001192,1242.0,1669831436945,1242,HRV,HRV_0145,2022-11-30 18:06:44
83,"[{'imgObject': {}, 'id': 'chicken nuggets2', 'src': '/static/foodstim60/chicken nuggets2.jpg', 'key': 'u', 'origWidth': 410, 'origHeight': 409, 'width': 410, 'height': 409, 'widthPercent': 0.45, 'rescaleHeight': False, 'trialN': 83, 'loaded': True, 'loadedTime': 142000.5, 'positionName': 'LEFT', 'positionCoords': [358, 190], 'bid': 8.57}, {'imgObject': {}, 'id': 'fruitsalad', 'src': '/static/foodstim60/fruitsalad.jpg', 'key': 'i', 'origWidth': 410, 'origHeight': 410, 'width': 410, 'height': 410, 'widthPercent': 0.45, 'rescaleHeight': False, 'trialN': 83, 'loaded': True, 'loadedTime': 142000.70000000298, 'positionName': 'RIGHT', 'positionCoords': [832, 189.5], 'bid': 8.81}]",141999.70000000298,1669831436945,chicken nuggets2,fruitsalad,8.57,8.81,0.2400000000000002,,fruitsalad,1806.2999999970198,1807,1806.5,True,i,144322.5,2322.7999999970198,1669831439268,2323,HRV,HRV_0145,2022-11-30 18:06:44
84,"[{'imgObject': {}, 'id': 'mac & cheese', 'src': '/static/foodstim60/mac & cheese.jpg', 'key': 'u', 'origWidth': 410, 'origHeight': 410, 'width': 410, 'height': 410, 'widthPercent': 0.45, 'rescaleHeight': False, 'trialN': 84, 'loaded': True, 'loadedTime': 144324.70000000298, 'positionName': 'LEFT', 'positionCoords': [358, 189.5], 'bid': 4.66}, {'imgObject': {}, 'id': 'cocktailshrimp', 'src': '/static/foodstim60/cocktailshrimp.jpg', 'key': 'i', 'origWidth': 410, 'origHeight': 410, 'width': 410, 'height': 410, 'widthPercent': 0.45, 'rescaleHeight': False, 'trialN': 84, 'loaded': True, 'loadedTime': 144325, 'positionName': 'RIGHT', 'positionCoords': [832, 189.5], 'bid': 0.03}]",144323.0,1669831439269,mac & cheese,cocktailshrimp,4.66,0.03,-4.63,,mac & cheese,1212.1000000089407,1212,1212.4000000059605,True,u,146041.80000001192,1718.800000011921,1669831440988,1719,HRV,HRV_0145,2022-11-30 18:06:44
85,"[{'imgObject': {}, 'id': 'mango', 'src': '/static/foodstim60/mango.jpg', 'key': 'u', 'origWidth': 411, 'origHeight': 411, 'width': 411, 'height': 411, 'widthPercent': 0.45, 'rescaleHeight': False, 'trialN': 85, 'loaded': True, 'loadedTime': 146043.70000000298, 'positionName': 'LEFT', 'positionCoords': [357, 189], 'bid': 5.93}, {'imgObject': {}, 'id': 'orange slices', 'src': '/static/foodstim60/orange slices.jpg', 'key': 'i', 'origWidth': 409, 'origHeight': 410, 'width': 409, 'height': 410, 'widthPercent': 0.45, 'rescaleHeight': False, 'trialN': 85, 'loaded': True, 'loadedTime': 146043.90000000596, 'positionName': 'RIGHT', 'positionCoords': [832, 189.5], 'bid': 6.3500000000000005}]",146042.30000001192,1669831440988,mango,orange slices,5.93,6.3500000000000005,0.4200000000000008,,orange slices,1099.8999999910593,1100,1100.0999999940395,True,i,147658.90000000596,1616.5999999940395,1669831442605,1617,HRV,HRV_0145,2022-11-30 18:06:44
86,"[{'imgObject': {}, 'id': 'turkeysandwich', 'src': '/static/foodstim60/turkeysandwich.jpg', 'key': 'u', 'origWidth': 409, 'origHeight': 409, 'width': 409, 'height': 409, 'widthPercent': 0.45, 'rescaleHeight': False, 'trialN': 86, 'loaded': True, 'loadedTime': 147661.20000000298, 'positionName': 'LEFT', 'positionCoords': [359, 190], 'bid': 7.22}, {'imgObject': {}, 'id': 'pear', 'src': '/static/foodstim60/pear.jpg', 'key': 'i', 'origWidth': 411, 'origHeight': 410, 'width': 411, 'height': 410, 'widthPercent': 0.45, 'rescaleHeight': False, 'trialN': 86, 'loaded': True, 'loadedTime': 147661.90000000596, 'positionName': 'RIGHT', 'positionCoords': [832, 189.5], 'bid': 7.17}]",147659.5,1669831442605,turkeysandwich,pear,7.22,7.17,-0.04999999999999982,,turkeysandwich,915.9000000059605,917,916.3000000119209,True,u,149087.90000000596,1428.4000000059605,1669831444034,1429,HRV,HRV_0145,2022-11-30 18:06:44
87,"[{'imgObject': {}, 'id': 'baked potato', 'src': '/static/foodstim60/baked potato.jpg', 'key': 'u', 'origWidth': 409, 'origHeight': 410, 'width': 409, 'height': 410, 'widthPercent': 0.45, 'rescaleHeight': False, 'trialN': 87, 'loaded': True, 'loadedTime': 149090.30000001192, 'positionName': 'LEFT', 'positionCoords': [359, 189.5], 'bid': 4.8500000000000005}, {'imgObject': {}, 'id': 'eggs', 'src': '/static/foodstim60/eggs.jpg', 'key': 'i', 'origWidth': 409, 'origHeight': 409, 'width': 409, 'height': 409, 'widthPercent': 0.45, 'rescaleHeight': False, 'trialN': 87, 'loaded': True, 'loadedTime': 149090.70000000298, 'positionName': 'RIGHT', 'positionCoords': [832, 190], 'bid': 0.12}]",149088.60000000894,1669831444034,baked potato,eggs,4.8500000000000005,0.12,-4.73,,baked potato,1071.3999999910593,1072,1072.0,True,u,150674.10000000894,1585.5,1669831445620,1586,HRV,HRV_0145,2022-11-30 18:06:44
88,"[{'imgObject': {}, 'id': 'Grapes', 'src': '/static/foodstim60/Grapes.jpg', 'key': 'u', 'origWidth': 411, 'origHeight': 411, 'width': 411, 'height': 411, 'widthPercent': 0.45, 'rescaleHeight': False, 'trialN': 88, 'loaded': True, 'loadedTime': 150676.5, 'positionName': 'LEFT', 'positionCoords': [357, 189], 'bid': 7.07}, {'imgObject': {}, 'id': 'veggieswithdip', 'src': '/static/foodstim60/veggieswithdip.jpg', 'key': 'i', 'origWidth': 409, 'origHeight': 409, 'width': 409, 'height': 409, 'widthPercent': 0.45, 'rescaleHeight': False, 'trialN': 88, 'loaded': True, 'loadedTime': 150676.80000001192, 'positionName': 'RIGHT', 'positionCoords': [832, 190], 'bid': 4.08}]",150674.80000001192,1669831445621,Grapes,veggieswithdip,7.07,4.08,-2.99,,Grapes,716.8999999910593,717,717.2999999970198,True,u,151910.80000001192,1236.0,1669831446857,1236,HRV,HRV_0145,2022-11-30 18:06:44
89,"[{'imgObject': {}, 'id': 'fried eggs', 'src': '/static/foodstim60/fried eggs.jpg', 'key': 'u', 'origWidth': 410, 'origHeight': 410, 'width': 410, 'height': 410, 'widthPercent': 0.45, 'rescaleHeight': False, 'trialN': 89, 'loaded': True, 'loadedTime': 151913.10000000894, 'positionName': 'LEFT', 'positionCoords': [358, 189.5], 'bid': 5.12}, {'imgObject': {}, 'id': 'blackbeanswithrice', 'src': '/static/foodstim60/blackbeanswithrice.jpg', 'key': 'i', 'origWidth': 410, 'origHeight': 410, 'width': 410, 'height': 410, 'widthPercent': 0.45, 'rescaleHeight': False, 'trialN': 89, 'loaded': True, 'loadedTime': 151913.40000000596, 'positionName': 'RIGHT', 'positionCoords': [832, 189.5], 'bid': 5.43}]",151911.40000000596,1669831446857,fried eggs,blackbeanswithrice,5.12,5.43,0.3099999999999996,,fried eggs,1920.7999999970198,1921,1921.2000000029802,True,u,154352.40000000596,2441.0,1669831449298,2441,HRV,HRV_0145,2022-11-30 18:06:44
90,"[{'imgObject': {}, 'id': 'chicken nuggets2', 'src': '/static/foodstim60/chicken nuggets2.jpg', 'key': 'u', 'origWidth': 410, 'origHeight': 409, 'width': 410, 'height': 409, 'widthPercent': 0.45, 'rescaleHeight': False, 'trialN': 90, 'loaded': True, 'loadedTime': 3761.7000000029802, 'positionName': 'LEFT', 'positionCoords': [358, 245.5], 'bid': 8.57}, {'imgObject': {}, 'id': 'cantaloupe', 'src': '/static/foodstim60/cantaloupe.jpg', 'key': 'i', 'origWidth': 409, 'origHeight': 409, 'width': 409, 'height': 409, 'widthPercent': 0.45, 'rescaleHeight': False, 'trialN': 90, 'loaded': True, 'loadedTime': 3761.7000000029802, 'positionName': 'RIGHT', 'positionCoords': [832, 245.5], 'bid': 7.01}]",155670.80000001192,1669831450617,chicken nuggets2,cantaloupe,8.57,7.01,-1.5600000000000005,"[{'event': 'fullscreenchange', 'details': 'fullscreenenter', 'performance time': 155671.60000000894, 'date time': 1669831450617}, {'event': 'fullscreenchange', 'details': 'fullscreenexit', 'performance time': 157413.10000000894, 'date time': 1669831452359}]",chicken nuggets2,2065.199999988079,2064,2065.5999999940395,True,u,158257.10000000894,2586.2999999970198,1669831453202,2585,HRV,HRV_0145,2022-11-30 18:06:44
91,"[{'imgObject': {}, 'id': 'strawberries', 'src': '/static/foodstim60/strawberries.jpg', 'key': 'u', 'origWidth': 410, 'origHeight': 410, 'width': 410, 'height': 410, 'widthPercent': 0.45, 'rescaleHeight': False, 'trialN': 91, 'loaded': True, 'loadedTime': 158258.5, 'positionName': 'LEFT', 'positionCoords': [358, 189.5], 'bid': 7.86}, {'imgObject': {}, 'id': 'chicken nuggets2', 'src': '/static/foodstim60/chicken nuggets2.jpg', 'key': 'i', 'origWidth': 410, 'origHeight': 409, 'width': 410, 'height': 409, 'widthPercent': 0.45, 'rescaleHeight': False, 'trialN': 91, 'loaded': True, 'loadedTime': 158258.90000000596, 'positionName': 'RIGHT', 'positionCoords': [832, 190], 'bid': 8.57}]",158257.60000000894,1669831453202,strawberries,chicken nuggets2,7.86,8.57,0.71,,chicken nuggets2,869.3999999910593,870,869.7999999970198,True,i,159628.60000000894,1371.0,1669831454573,1371,HRV,HRV_0145,2022-11-30 18:06:44
92,"[{'imgObject': {}, 'id': 'orange slices', 'src': '/static/foodstim60/orange slices.jpg', 'key': 'u', 'origWidth': 409, 'origHeight': 410, 'width': 409, 'height': 410, 'widthPercent': 0.45, 'rescaleHeight': False, 'trialN': 92, 'loaded': True, 'loadedTime': 159630.80000001192, 'positionName': 'LEFT', 'positionCoords': [359, 189.5], 'bid': 6.3500000000000005}, {'imgObject': {}, 'id': 'roastedpotatoes', 'src': '/static/foodstim60/roastedpotatoes.jpg', 'key': 'i', 'origWidth': 409, 'origHeight': 410, 'width': 409, 'height': 410, 'widthPercent': 0.45, 'rescaleHeight': False, 'trialN': 92, 'loaded': True, 'loadedTime': 159631.60000000894, 'positionName': 'RIGHT', 'positionCoords': [832, 189.5], 'bid': 5.57}]",159629.10000000894,1669831454574,orange slices,roastedpotatoes,6.3500000000000005,5.57,-0.7800000000000002,,roastedpotatoes,1386.7999999970198,1387,1387.2000000029802,True,i,161535.30000001192,1906.2000000029802,1669831456480,1906,HRV,HRV_0145,2022-11-30 18:06:44
93,"[{'imgObject': {}, 'id': 'rigatoni and sauce', 'src': '/static/foodstim60/rigatoni and sauce.jpg', 'key': 'u', 'origWidth': 410, 'origHeight': 411, 'width': 410, 'height': 411, 'widthPercent': 0.45, 'rescaleHeight': False, 'trialN': 93, 'loaded': True, 'loadedTime': 161537.20000000298, 'positionName': 'LEFT', 'positionCoords': [358, 189], 'bid': 7.91}, {'imgObject': {}, 'id': 'raspberries', 'src': '/static/foodstim60/raspberries.jpg', 'key': 'i', 'origWidth': 411, 'origHeight': 411, 'width': 411, 'height': 411, 'widthPercent': 0.45, 'rescaleHeight': False, 'trialN': 93, 'loaded': True, 'loadedTime': 161537.70000000298, 'positionName': 'RIGHT', 'positionCoords': [832, 189], 'bid': 6.42}]",161535.70000000298,1669831456480,rigatoni and sauce,raspberries,7.91,6.42,-1.4900000000000002,,rigatoni and sauce,751.2999999970198,752,751.7999999970198,True,u,162792.80000001192,1257.1000000089407,1669831457737,1257,HRV,HRV_0145,2022-11-30 18:06:44
94,"[{'imgObject': {}, 'id': 'edamame', 'src': '/static/foodstim60/edamame.jpg', 'key': 'u', 'origWidth': 409, 'origHeight': 410, 'width': 409, 'height': 410, 'widthPercent': 0.45, 'rescaleHeight': False, 'trialN': 94, 'loaded': True, 'loadedTime': 162795.10000000894, 'positionName': 'LEFT', 'positionCoords': [359, 189.5], 'bid': 3.63}, {'imgObject': {}, 'id': 'eggs', 'src': '/static/foodstim60/eggs.jpg', 'key': 'i', 'origWidth': 409, 'origHeight': 409, 'width': 409, 'height': 409, 'widthPercent': 0.45, 'rescaleHeight': False, 'trialN': 94, 'loaded': True, 'loadedTime': 162795.40000000596, 'positionName': 'RIGHT', 'positionCoords': [832, 190], 'bid': 0.12}]",162793.30000001192,1669831457738,edamame,eggs,3.63,0.12,-3.51,,edamame,1111.0999999940395,1111,1111.5,True,u,164425.30000001192,1632.0,1669831459370,1632,HRV,HRV_0145,2022-11-30 18:06:44
95,"[{'imgObject': {}, 'id': 'burrito', 'src': '/static/foodstim60/burrito.jpg', 'key': 'u', 'origWidth': 410, 'origHeight': 410, 'width': 410, 'height': 410, 'widthPercent': 0.45, 'rescaleHeight': False, 'trialN': 95, 'loaded': True, 'loadedTime': 164427.70000000298, 'positionName': 'LEFT', 'positionCoords': [358, 189.5], 'bid': 6.8}, {'imgObject': {}, 'id': 'kiwi', 'src': '/static/foodstim60/kiwi.jpg', 'key': 'i', 'origWidth': 410, 'origHeight': 410, 'width': 410, 'height': 410, 'widthPercent': 0.45, 'rescaleHeight': False, 'trialN': 95, 'loaded': True, 'loadedTime': 164427.90000000596, 'positionName': 'RIGHT', 'positionCoords': [832, 189.5], 'bid': 6.58}]",164425.90000000596,1669831459370,burrito,kiwi,6.8,6.58,-0.21999999999999975,,burrito,893.9000000059605,895,894.5,True,u,165843.80000001192,1417.9000000059605,1669831460788,1418,HRV,HRV_0145,2022-11-30 18:06:44
96,"[{'imgObject': {}, 'id': 'apple slices', 'src': '/static/foodstim60/apple slices.jpg', 'key': 'u', 'origWidth': 409, 'origHeight': 410, 'width': 409, 'height': 410, 'widthPercent': 0.45, 'rescaleHeight': False, 'trialN': 96, 'loaded': True, 'loadedTime': 165846.10000000894, 'positionName': 'LEFT', 'positionCoords': [359, 189.5], 'bid': 7.03}, {'imgObject': {}, 'id': 'cheerios', 'src': '/static/foodstim60/cheerios.jpg', 'key': 'i', 'origWidth': 409, 'origHeight': 410, 'width': 409, 'height': 410, 'widthPercent': 0.45, 'rescaleHeight': False, 'trialN': 96, 'loaded': True, 'loadedTime': 165846.80000001192, 'positionName': 'RIGHT', 'positionCoords': [832, 189.5], 'bid': 3.86}]",165844.30000001192,1669831460789,apple slices,cheerios,7.03,3.86,-3.1700000000000004,,apple slices,826.8999999910593,827,827.2999999970198,True,u,167179.10000000894,1334.7999999970198,1669831462124,1335,HRV,HRV_0145,2022-11-30 18:06:44
97,"[{'imgObject': {}, 'id': 'orange slices', 'src': '/static/foodstim60/orange slices.jpg', 'key': 'u', 'origWidth': 409, 'origHeight': 410, 'width': 409, 'height': 410, 'widthPercent': 0.45, 'rescaleHeight': False, 'trialN': 97, 'loaded': True, 'loadedTime': 167181.40000000596, 'positionName': 'LEFT', 'positionCoords': [359, 189.5], 'bid': 6.3500000000000005}, {'imgObject': {}, 'id': 'strawberries', 'src': '/static/foodstim60/strawberries.jpg', 'key': 'i', 'origWidth': 410, 'origHeight': 410, 'width': 410, 'height': 410, 'widthPercent': 0.45, 'rescaleHeight': False, 'trialN': 97, 'loaded': True, 'loadedTime': 167182, 'positionName': 'RIGHT', 'positionCoords': [832, 189.5], 'bid': 7.86}]",167179.70000000298,1669831462124,orange slices,strawberries,6.3500000000000005,7.86,1.5099999999999998,,strawberries,980.1000000089407,981,980.7000000029802,True,i,168674.40000000596,1494.7000000029802,1669831463619,1495,HRV,HRV_0145,2022-11-30 18:06:44
98,"[{'imgObject': {}, 'id': 'rigatoni', 'src': '/static/foodstim60/rigatoni.jpg', 'key': 'u', 'origWidth': 411, 'origHeight': 411, 'width': 411, 'height': 411, 'widthPercent': 0.45, 'rescaleHeight': False, 'trialN': 98, 'loaded': True, 'loadedTime': 168677, 'positionName': 'LEFT', 'positionCoords': [357, 189], 'bid': 5.48}, {'imgObject': {}, 'id': 'kiwi', 'src': '/static/foodstim60/kiwi.jpg', 'key': 'i', 'origWidth': 410, 'origHeight': 410, 'width': 410, 'height': 410, 'widthPercent': 0.45, 'rescaleHeight': False, 'trialN': 98, 'loaded': True, 'loadedTime': 168677.20000000298, 'positionName': 'RIGHT', 'positionCoords': [832, 189.5], 'bid': 6.58}]",168675.20000000298,1669831463620,rigatoni,kiwi,5.48,6.58,1.0999999999999996,,kiwi,1820.7999999970198,1821,1821.4000000059605,True,i,171010.70000000298,2335.5,1669831465955,2335,HRV,HRV_0145,2022-11-30 18:06:44
99,"[{'imgObject': {}, 'id': 'omelette', 'src': '/static/foodstim60/omelette.jpg', 'key': 'u', 'origWidth': 410, 'origHeight': 409, 'width': 410, 'height': 409, 'widthPercent': 0.45, 'rescaleHeight': False, 'trialN': 99, 'loaded': True, 'loadedTime': 171013.20000000298, 'positionName': 'LEFT', 'positionCoords': [358, 190], 'bid': 4.98}, {'imgObject': {}, 'id': 'turkey sandwich', 'src': '/static/foodstim60/turkey sandwich.jpg', 'key': 'i', 'origWidth': 409, 'origHeight': 409, 'width': 409, 'height': 409, 'widthPercent': 0.45, 'rescaleHeight': False, 'trialN': 99, 'loaded': True, 'loadedTime': 171013.40000000596, 'positionName': 'RIGHT', 'positionCoords': [832, 190], 'bid': 8.02}]",171011.30000001192,1669831465956,omelette,turkey sandwich,4.98,8.02,3.039999999999999,,turkey sandwich,836.6999999880791,837,837.0999999940395,True,i,172364.10000000894,1352.7999999970198,1669831467309,1353,HRV,HRV_0145,2022-11-30 18:06:44
100,"[{'imgObject': {}, 'id': 'raisin bran w milk', 'src': '/static/foodstim60/raisin bran w milk.jpg', 'key': 'u', 'origWidth': 411, 'origHeight': 411, 'width': 411, 'height': 411, 'widthPercent': 0.45, 'rescaleHeight': False, 'trialN': 100, 'loaded': True, 'loadedTime': 172366.40000000596, 'positionName': 'LEFT', 'positionCoords': [357, 189], 'bid': 4.53}, {'imgObject': {}, 'id': 'corn cob', 'src': '/static/foodstim60/corn cob.jpg', 'key': 'i', 'origWidth': 411, 'origHeight': 411, 'width': 411, 'height': 411, 'widthPercent': 0.45, 'rescaleHeight': False, 'trialN': 100, 'loaded': True, 'loadedTime': 172366.70000000298, 'positionName': 'RIGHT', 'positionCoords': [832, 189], 'bid': 4.67}]",172364.60000000894,1669831467309,raisin bran w milk,corn cob,4.53,4.67,0.13999999999999968,,raisin bran w milk,1394.8999999910593,1395,1395.3999999910593,True,u,174262.40000000596,1897.7999999970198,1669831469207,1898,HRV,HRV_0145,2022-11-30 18:06:44
101,"[{'imgObject': {}, 'id': 'olives', 'src': '/static/foodstim60/olives.jpg', 'key': 'u', 'origWidth': 410, 'origHeight': 410, 'width': 410, 'height': 410, 'widthPercent': 0.45, 'rescaleHeight': False, 'trialN': 101, 'loaded': True, 'loadedTime': 174264.5, 'positionName': 'LEFT', 'positionCoords': [358, 189.5], 'bid': 0.07}, {'imgObject': {}, 'id': 'veggieswithdip', 'src': '/static/foodstim60/veggieswithdip.jpg', 'key': 'i', 'origWidth': 409, 'origHeight': 409, 'width': 409, 'height': 409, 'widthPercent': 0.45, 'rescaleHeight': False, 'trialN': 101, 'loaded': True, 'loadedTime': 174264.70000000298, 'positionName': 'RIGHT', 'positionCoords': [832, 190], 'bid': 4.08}]",174262.80000001192,1669831469207,olives,veggieswithdip,0.07,4.08,4.01,,veggieswithdip,936.6999999880791,937,937.0,True,i,175701.20000000298,1438.3999999910593,1669831470646,1439,HRV,HRV_0145,2022-11-30 18:06:44
102,"[{'imgObject': {}, 'id': 'salmon', 'src': '/static/foodstim60/salmon.jpg', 'key': 'u', 'origWidth': 410, 'origHeight': 409, 'width': 410, 'height': 409, 'widthPercent': 0.45, 'rescaleHeight': False, 'trialN': 102, 'loaded': True, 'loadedTime': 175702.30000001192, 'positionName': 'LEFT', 'positionCoords': [358, 190], 'bid': 0.13}, {'imgObject': {}, 'id': 'eggsalad', 'src': '/static/foodstim60/eggsalad.jpg', 'key': 'i', 'origWidth': 410, 'origHeight': 409, 'width': 410, 'height': 409, 'widthPercent': 0.45, 'rescaleHeight': False, 'trialN': 102, 'loaded': True, 'loadedTime': 175702.5, 'positionName': 'RIGHT', 'positionCoords': [832, 190], 'bid': 0.12}]",175701.70000000298,1669831470646,salmon,eggsalad,0.13,0.12,-0.010000000000000009,,eggsalad,2817.7000000029802,2818,2818.2999999970198,True,i,179026.60000000894,3324.9000000059605,1669831473971,3325,HRV,HRV_0145,2022-11-30 18:06:44
103,"[{'imgObject': {}, 'id': 'raspberries', 'src': '/static/foodstim60/raspberries.jpg', 'key': 'u', 'origWidth': 411, 'origHeight': 411, 'width': 411, 'height': 411, 'widthPercent': 0.45, 'rescaleHeight': False, 'trialN': 103, 'loaded': True, 'loadedTime': 179029.10000000894, 'positionName': 'LEFT', 'positionCoords': [357, 189], 'bid': 6.42}, {'imgObject': {}, 'id': 'Tribe humus pita', 'src': '/static/foodstim60/Tribe humus pita.jpg', 'key': 'i', 'origWidth': 411, 'origHeight': 411, 'width': 411, 'height': 411, 'widthPercent': 0.45, 'rescaleHeight': False, 'trialN': 103, 'loaded': True, 'loadedTime': 179029.40000000596, 'positionName': 'RIGHT', 'positionCoords': [832, 189], 'bid': 5.28}]",179027.30000001192,1669831473972,raspberries,Tribe humus pita,6.42,5.28,-1.1399999999999997,,Tribe humus pita,884.5999999940395,885,885.0999999940395,True,i,180428.20000000298,1400.8999999910593,1669831475373,1401,HRV,HRV_0145,2022-11-30 18:06:44
104,"[{'imgObject': {}, 'id': 'fried eggs', 'src': '/static/foodstim60/fried eggs.jpg', 'key': 'u', 'origWidth': 410, 'origHeight': 410, 'width': 410, 'height': 410, 'widthPercent': 0.45, 'rescaleHeight': False, 'trialN': 104, 'loaded': True, 'loadedTime': 180431, 'positionName': 'LEFT', 'positionCoords': [358, 189.5], 'bid': 5.12}, {'imgObject': {}, 'id': 'cherry tomato', 'src': '/static/foodstim60/cherry tomato.jpg', 'key': 'i', 'origWidth': 410, 'origHeight': 410, 'width': 410, 'height': 410, 'widthPercent': 0.45, 'rescaleHeight': False, 'trialN': 104, 'loaded': True, 'loadedTime': 180431.20000000298, 'positionName': 'RIGHT', 'positionCoords': [832, 189.5], 'bid': 2.98}]",180428.90000000596,1669831475373,fried eggs,cherry tomato,5.12,2.98,-2.14,,fried eggs,849.9000000059605,851,850.2000000029802,True,u,181781.40000000596,1352.5,1669831476726,1353,HRV,HRV_0145,2022-11-30 18:06:44
105,"[{'imgObject': {}, 'id': 'strawberries', 'src': '/static/foodstim60/strawberries.jpg', 'key': 'u', 'origWidth': 410, 'origHeight': 410, 'width': 410, 'height': 410, 'widthPercent': 0.45, 'rescaleHeight': False, 'trialN': 105, 'loaded': True, 'loadedTime': 181783.90000000596, 'positionName': 'LEFT', 'positionCoords': [358, 189.5], 'bid': 7.86}, {'imgObject': {}, 'id': 'burger', 'src': '/static/foodstim60/burger.jpg', 'key': 'i', 'origWidth': 409, 'origHeight': 409, 'width': 409, 'height': 409, 'widthPercent': 0.45, 'rescaleHeight': False, 'trialN': 105, 'loaded': True, 'loadedTime': 181784.20000000298, 'positionName': 'RIGHT', 'positionCoords': [832, 190], 'bid': 7.41}]",181782.10000000894,1669831476727,strawberries,burger,7.86,7.41,-0.4500000000000002,,burger,825.2999999970198,825,825.7999999970198,True,i,183117.80000001192,1335.7000000029802,1669831478062,1335,HRV,HRV_0145,2022-11-30 18:06:44
106,"[{'imgObject': {}, 'id': 'cherries', 'src': '/static/foodstim60/cherries.jpg', 'key': 'u', 'origWidth': 410, 'origHeight': 411, 'width': 410, 'height': 411, 'widthPercent': 0.45, 'rescaleHeight': False, 'trialN': 106, 'loaded': True, 'loadedTime': 183120.20000000298, 'positionName': 'LEFT', 'positionCoords': [358, 189], 'bid': 7.2}, {'imgObject': {}, 'id': 'yogurt no spoon', 'src': '/static/foodstim60/yogurt no spoon.jpg', 'key': 'i', 'origWidth': 411, 'origHeight': 410, 'width': 411, 'height': 410, 'widthPercent': 0.45, 'rescaleHeight': False, 'trialN': 106, 'loaded': True, 'loadedTime': 183120.5, 'positionName': 'RIGHT', 'positionCoords': [832, 189.5], 'bid': 7.1000000000000005}]",183118.30000001192,1669831478063,cherries,yogurt no spoon,7.2,7.1000000000000005,-0.09999999999999964,,yogurt no spoon,1288.2999999970198,1288,1288.5999999940395,True,i,184910.5,1792.199999988079,1669831479855,1792,HRV,HRV_0145,2022-11-30 18:06:44
107,"[{'imgObject': {}, 'id': 'raisin bran w milk', 'src': '/static/foodstim60/raisin bran w milk.jpg', 'key': 'u', 'origWidth': 411, 'origHeight': 411, 'width': 411, 'height': 411, 'widthPercent': 0.45, 'rescaleHeight': False, 'trialN': 107, 'loaded': True, 'loadedTime': 184912.90000000596, 'positionName': 'LEFT', 'positionCoords': [357, 189], 'bid': 4.53}, {'imgObject': {}, 'id': 'mac & cheese', 'src': '/static/foodstim60/mac & cheese.jpg', 'key': 'i', 'origWidth': 410, 'origHeight': 410, 'width': 410, 'height': 410, 'widthPercent': 0.45, 'rescaleHeight': False, 'trialN': 107, 'loaded': True, 'loadedTime': 184913.70000000298, 'positionName': 'RIGHT', 'positionCoords': [832, 189.5], 'bid': 4.66}]",184911.0,1669831479856,raisin bran w milk,mac & cheese,4.53,4.66,0.1299999999999999,,mac & cheese,952.6000000089407,953,953.0,True,i,186376.30000001192,1465.300000011921,1669831481321,1465,HRV,HRV_0145,2022-11-30 18:06:44
108,"[{'imgObject': {}, 'id': 'bagel and cc', 'src': '/static/foodstim60/bagel and cc.jpg', 'key': 'u', 'origWidth': 410, 'origHeight': 410, 'width': 410, 'height': 410, 'widthPercent': 0.45, 'rescaleHeight': False, 'trialN': 108, 'loaded': True, 'loadedTime': 186378.10000000894, 'positionName': 'LEFT', 'positionCoords': [358, 189.5], 'bid': 5.05}, {'imgObject': {}, 'id': 'tacos', 'src': '/static/foodstim60/tacos.jpg', 'key': 'i', 'origWidth': 411, 'origHeight': 411, 'width': 411, 'height': 411, 'widthPercent': 0.45, 'rescaleHeight': False, 'trialN': 108, 'loaded': True, 'loadedTime': 186378.40000000596, 'positionName': 'RIGHT', 'positionCoords': [832, 189], 'bid': 8.36}]",186376.70000000298,1669831481321,bagel and cc,tacos,5.05,8.36,3.3099999999999996,,tacos,887.2000000029802,888,887.7000000029802,True,i,187776.10000000894,1399.4000000059605,1669831482721,1400,HRV,HRV_0145,2022-11-30 18:06:44
