success,trial_type,trial_index,time_elapsed,internal_node_id,Block,TrialNumber,TrialTime,trialTimeDiff,FPS_avg,FPS_med,FPS_mode,TrialDur,winResizeTime,rt,block,button_pressed,MotCoh,MotDir,ColCoh,Color,ChoiceKey,Choice,Accuracy,RT,nFrames,FPS,PPD,missTrial,missTrialMsg,onsetDelay,fullScreenExitTime,canvCenter,TrialType,Score,BlockTrial,stimulus,button_labels,exp,subjectId,date
True,fullscreen,0,1634,0.0-0.0,0.0,1.0,,,,,,,,,,,,,,,,,,,,,,,,,,,,,,,,HRV,HRV_0145,2022-11-30 18:16:42
,wl-check-fps,1,9212,0.0-1.0,0.0,2.0,"[4677.6, 4679.3, 4694.8, 4711.3, 4727.4, 4744.4, 4761.1, 4778, 4794.3, 4811.2, 4827.7, 4844.2, 4860.8, 4878.2, 4894.1, 4910.8, 4927.9, 4944.3, 4961.3, 4977.5, 4994.8, 5010.9, 5028.2, 5044.4, 5061.1, 5096.8, 5097.3, 5110.6, 5127.5, 5144.3, 5160.7, 5178, 5194.4, 5211, 5228.1, 5245.1, 5260.9, 5277.6, 5294.3, 5310.9, 5328.1, 5344.2, 5361, 5378, 5393.9, 5410.9, 5428.3, 5444.1, 5460.6, 5478.1, 5494.3, 5510.8, 5527.8, 5544.9, 5560.9, 5578.2, 5595, 5610.9, 5628.2, 5644.3, 5661.3, 5677.4, 5694.8, 5711.4, 5727.5, 5744.2, 5761, 5777.9, 5795.1, 5811, 5828.6, 5844.4, 5860.9, 5877.5, 5894.9, 5911, 5928.1, 5944.2, 5960.7, 5977.6, 5994.7, 6011, 6028.1, 6044.4, 6061, 6077.4, 6094.6, 6110.7, 6127.6, 6144.2, 6161.1, 6177.8, 6194.1, 6211, 6227.6, 6244.6, 6261.7, 6277.7, 6294.4, 6311.1, 6327.5, 6344.3, 6360.9, 6378.2, 6394.2, 6410.7, 6427.4, 6444.2, 6460.8, 6478.2, 6494.2, 6510.9, 6528.3, 6545.2, 6561, 6577.4, 6594.1, 6611.1, 6627.4, 6644, 6660.8, 6677.2, 6694.4, 6710.9, 6727.8, 6745, 6760.9, 6778.3, 6794.2, 6810.8, 6828, 6844.1, 6860.8, 6877.4, 6893.9, 6911.5, 6928.4, 6944.1, 6960.7, 6977.6, 6994.2, 7011, 7027.5, 7044.2, 7060.8, 7077.4, 7094.9, 7110.7, 7128.2, 7144.2, 7160.9, 7178.2, 7194.1, 7210.7, 7228.1, 7244.2, 7260.8, 7277.5, 7294.9, 7311.1, 7327.7, 7344.3, 7361.6, 7377.4, 7394.2, 7411.3, 7427.4, 7444.3, 7460.9, 7477.5, 7494.7, 7510.8, 7527.4, 7544.2, 7561.2, 7578.1, 7594.1, 7610.9, 7627.4, 7644.6, 7660.7, 7677.4, 7694.4, 7710.9, 7727.5, 7744.3, 7760.8, 7777.9, 7794.7, 7810.8, 7828.1, 7844.2, 7860.9, 7877.4, 7894.3, 7911, 7927.4, 7944.2, 7961.4, 7978.2, 7994, 8010.7, 8027.3, 8044.7, 8061, 8077.4, 8094.3, 8110.9, 8128.1, 8144.2, 8160.8, 8178.4, 8194.7, 8210.9, 8228.1, 8244, 8260.9, 8277.6, 8294.7, 8311, 8328.4, 8344.4, 8360.9, 8377.6, 8394.1, 8411, 8427.4, 8444.3, 8460.7, 8477.6, 8494.9, 8511.1, 8528.1, 8544.2, 8560.7, 8577.6, 8594.2, 8610.8, 8627.5, 8644.3, 8660.9, 8677.4, 8694.2, 8710.9, 8727.7, 8744.3, 8761.2, 8778.3, 8795.2, 8811.1, 8828.2, 8844.5, 8860.8, 8878.2, 8894.5, 8910.8, 8927.5, 8944.4, 8961.4, 8978.3, 8994.6, 9010.8, 9028.2, 9044.3, 9060.8, 9077.5, 9094.2, 9111.2, 9128.1, 9144.3, 9160.9, 9178.1, 9194.2, 9211.3, 9227.4, 9244.2, 9260.8, 9277.4, 9294.9, 9310.9, 9328.4, 9344.1, 9361, 9378, 9394.1, 9411.3, 9427.8, 9444.4, 9460.9, 9477.4, 9494.8, 9510.8, 9527.4, 9544.2, 9560.7, 9577.4, 9594.9, 9610.7, 9627.5, 9644.3]","[0.6, 1.7, 15.5, 16.5, 16.1, 17, 16.7, 16.9, 16.3, 16.9, 16.5, 16.5, 16.6, 17.4, 15.9, 16.7, 17.1, 16.4, 17, 16.2, 17.3, 16.1, 17.3, 16.2, 16.7, 35.7, 0.5, 13.3, 16.9, 16.8, 16.4, 17.3, 16.4, 16.6, 17.1, 17, 15.8, 16.7, 16.7, 16.6, 17.2, 16.1, 16.8, 17, 15.9, 17, 17.4, 15.8, 16.5, 17.5, 16.2, 16.5, 17, 17.1, 16, 17.3, 16.8, 15.9, 17.3, 16.1, 17, 16.1, 17.4, 16.6, 16.1, 16.7, 16.8, 16.9, 17.2, 15.9, 17.6, 15.8, 16.5, 16.6, 17.4, 16.1, 17.1, 16.1, 16.5, 16.9, 17.1, 16.3, 17.1, 16.3, 16.6, 16.4, 17.2, 16.1, 16.9, 16.6, 16.9, 16.7, 16.3, 16.9, 16.6, 17, 17.1, 16, 16.7, 16.7, 16.4, 16.8, 16.6, 17.3, 16, 16.5, 16.7, 16.8, 16.6, 17.4, 16, 16.7, 17.4, 16.9, 15.8, 16.4, 16.7, 17, 16.3, 16.6, 16.8, 16.4, 17.2, 16.5, 16.9, 17.2, 15.9, 17.4, 15.9, 16.6, 17.2, 16.1, 16.7, 16.6, 16.5, 17.6, 16.9, 15.7, 16.6, 16.9, 16.6, 16.8, 16.5, 16.7, 16.6, 16.6, 17.5, 15.8, 17.5, 16, 16.7, 17.3, 15.9, 16.6, 17.4, 16.1, 16.6, 16.7, 17.4, 16.2, 16.6, 16.6, 17.3, 15.8, 16.8, 17.1, 16.1, 16.9, 16.6, 16.6, 17.2, 16.1, 16.6, 16.8, 17, 16.9, 16, 16.8, 16.5, 17.2, 16.1, 16.7, 17, 16.5, 16.6, 16.8, 16.5, 17.1, 16.8, 16.1, 17.3, 16.1, 16.7, 16.5, 16.9, 16.7, 16.4, 16.8, 17.2, 16.8, 15.8, 16.7, 16.6, 17.4, 16.3, 16.4, 16.9, 16.6, 17.2, 16.1, 16.6, 17.6, 16.3, 16.2, 17.2, 15.9, 16.9, 16.7, 17.1, 16.3, 17.4, 16, 16.5, 16.7, 16.5, 16.9, 16.4, 16.9, 16.4, 16.9, 17.3, 16.2, 17, 16.1, 16.5, 16.9, 16.6, 16.6, 16.7, 16.8, 16.6, 16.5, 16.8, 16.7, 16.8, 16.6, 16.9, 17.1, 16.9, 15.9, 17.1, 16.3, 16.3, 17.4, 16.3, 16.3, 16.7, 16.9, 17, 16.9, 16.3, 16.2, 17.4, 16.1, 16.5, 16.7, 16.7, 17, 16.9, 16.2, 16.6, 17.2, 16.1, 17.1, 16.1, 16.8, 16.6, 16.6, 17.5, 16, 17.5, 15.7, 16.9, 17, 16.1, 17.2, 16.5, 16.6, 16.5, 16.5, 17.4, 16, 16.6, 16.8, 16.5, 16.7, 17.5, 15.8, 16.8, 16.8]",60.0,61.0,60.0,4983.9,[],,,,,,,,,,,,,,,,,,,,,,,,,HRV,HRV_0145,2022-11-30 18:16:42
,wl-html-keyboard-response,2,18313,0.0-2.0-0.0,0.0,3.0,,,,,,,,7088.5,0.0,0,,,,,,,,,,,,,,,,,,,,,,HRV,HRV_0145,2022-11-30 18:16:42
,wl-rdm,3,25794,0.0-3.0-0.0,0.0,4.0,,,,,,,[],,,,0.0,0.0,87.9,0.0,u,0.0,True,1920.8999999910593,116.0,60.0,40.0,False,,3000.0,[],"[800, 450]",ColorTask_Demo,,,,,HRV,HRV_0145,2022-11-30 18:16:42
,wl-rdm,4,30993,0.0-3.0-1.0,0.0,5.0,,,,,,,[],,,,0.0,0.0,87.9,1.0,i,1.0,True,1101.0,67.0,60.0,40.0,False,,2000.0,[],"[800, 450]",ColorTask_Demo,,,,,HRV,HRV_0145,2022-11-30 18:16:42
,wl-html-keyboard-response,5,36273,0.0-3.0-2.0,0.0,6.0,,,,,,,,3274.0999999940395,0.0,1,,,,,,,,,,,,,,,,,,,,,,HRV,HRV_0145,2022-11-30 18:16:42
,wl-html-keyboard-response,6,45169,0.0-4.0-0.0,0.0,7.0,,,,,,,,6890.0,0.0,0,,,,,,,,,,,,,,,,,,,,,,HRV,HRV_0145,2022-11-30 18:16:42
,wl-html-keyboard-response,7,56681,0.0-5.0-0.0,0.0,8.0,,,,,,,,9505.20000000298,0.0,0,,,,,,,,,,,,,,,,,,,,,,HRV,HRV_0145,2022-11-30 18:16:42
,wl-rdm,8,58909,0.0-6.0-0.0,0.0,9.0,,,,,,,[],,,,,,87.9,1.0,i,1.0,True,920.6999999880791,56.0,60.0,40.0,False,,231.65697947628203,[],"[800, 450]",ColorTask,1.0,1.0,,,HRV,HRV_0145,2022-11-30 18:16:42
,wl-rdm,9,61177,0.0-6.1-0.1,0.0,10.0,,,,,,,[],,,,,,62.5,0.0,u,0.0,True,967.4000000059605,59.0,60.0,40.0,False,,213.30270394502597,[],"[800, 450]",ColorTask,2.0,2.0,,,HRV,HRV_0145,2022-11-30 18:16:42
,wl-rdm,10,63142,0.0-6.2-0.2,0.0,11.0,,,,,,,[],,,,,,87.9,1.0,i,1.0,True,627.5999999940395,38.0,60.0,40.0,False,,253.60020955333314,[],"[800, 450]",ColorTask,3.0,3.0,,,HRV,HRV_0145,2022-11-30 18:16:42
,wl-rdm,11,65109,0.0-6.3-0.3,0.0,12.0,,,,,,,[],,,,,,87.9,0.0,u,0.0,True,604.3999999910593,37.0,60.0,40.0,False,,267.0839615965551,[],"[800, 450]",ColorTask,4.0,4.0,,,HRV,HRV_0145,2022-11-30 18:16:42
,wl-rdm,12,67527,0.0-6.4-0.4,0.0,13.0,,,,,,,[],,,,,,56.4,0.0,u,0.0,True,1019.8999999910593,62.0,60.0,40.0,False,,317.35643203818523,[],"[800, 450]",ColorTask,5.0,5.0,,,HRV,HRV_0145,2022-11-30 18:16:42
,wl-rdm,13,69960,0.0-6.5-0.5,0.0,14.0,,,,,,,[],,,,,,50.0,1.0,i,1.0,True,1060.0,64.0,60.0,40.0,False,,292.76295498823146,[],"[800, 450]",ColorTask,6.0,6.0,,,HRV,HRV_0145,2022-11-30 18:16:42
,wl-rdm,14,72426,0.0-6.6-0.6,0.0,15.0,,,,,,,[],,,,,,50.0,0.0,u,0.0,True,1090.6000000089407,66.0,60.0,40.0,False,,303.96620317067624,[],"[800, 450]",ColorTask,7.0,7.0,,,HRV,HRV_0145,2022-11-30 18:16:42
,wl-rdm,15,74476,0.0-6.7-0.7,0.0,16.0,,,,,,,[],,,,,,73.6,1.0,i,1.0,True,738.2000000029802,45.0,60.0,40.0,False,,243.10871455159415,[],"[800, 450]",ColorTask,8.0,8.0,,,HRV,HRV_0145,2022-11-30 18:16:42
,wl-rdm,16,76509,0.0-6.8-0.8,0.0,17.0,,,,,,,[],,,,,,62.5,1.0,i,1.0,True,611.3999999910593,37.0,60.0,40.0,False,,352.6689637961664,[],"[800, 450]",ColorTask,9.0,9.0,,,HRV,HRV_0145,2022-11-30 18:16:42
,wl-rdm,17,78926,0.0-6.9-0.9,0.0,18.0,,,,,,,[],,,,,,53.2,1.0,i,1.0,True,937.1000000089407,57.0,60.0,40.0,False,,393.30796197225413,[],"[800, 450]",ColorTask,10.0,10.0,,,HRV,HRV_0145,2022-11-30 18:16:42
,wl-rdm,18,81059,0.0-6.10-0.10,0.0,19.0,,,,,,,[],,,,,,53.2,0.0,i,1.0,False,840.2000000029802,51.0,60.0,40.0,False,,215.03804203167346,[],"[800, 450]",ColorTask,9.0,11.0,,,HRV,HRV_0145,2022-11-30 18:16:42
,wl-rdm,19,83843,0.0-6.11-0.11,0.0,20.0,,,,,,,[],,,,,,53.2,1.0,u,0.0,False,1315.2999999970198,79.0,60.0,40.0,False,,395.59222563737336,[],"[800, 450]",ColorTask,8.0,12.0,,,HRV,HRV_0145,2022-11-30 18:16:42
,wl-rdm,20,86060,0.0-6.12-0.12,0.0,21.0,,,,,,,[],,,,,,50.0,1.0,u,0.0,False,822.6000000089407,50.0,60.0,40.0,False,,326.64761948174646,[],"[800, 450]",ColorTask,7.0,13.0,,,HRV,HRV_0145,2022-11-30 18:16:42
,wl-rdm,21,88091,0.0-6.13-0.13,0.0,22.0,,,,,,,[],,,,,,62.5,1.0,i,1.0,True,737.5,45.0,60.0,40.0,False,,229.113618709282,[],"[800, 450]",ColorTask,8.0,14.0,,,HRV,HRV_0145,2022-11-30 18:16:42
,wl-rdm,22,90308,0.0-6.14-0.14,0.0,23.0,,,,,,,[],,,,,,56.4,0.0,i,1.0,False,812.3999999910593,49.0,60.0,40.0,False,,338.9767582019746,[],"[800, 450]",ColorTask,7.0,15.0,,,HRV,HRV_0145,2022-11-30 18:16:42
,wl-rdm,23,92192,0.0-6.15-0.15,0.0,24.0,,,,,,,[],,,,,,87.9,1.0,i,1.0,True,616.2999999970198,37.0,60.0,40.0,False,,214.74264749415528,[],"[800, 450]",ColorTask,8.0,16.0,,,HRV,HRV_0145,2022-11-30 18:16:42
,wl-rdm,24,94124,0.0-6.16-0.16,0.0,25.0,,,,,,,[],,,,,,87.9,0.0,u,0.0,True,619.4000000059605,38.0,60.0,40.0,False,,228.2949035360825,[],"[800, 450]",ColorTask,9.0,17.0,,,HRV,HRV_0145,2022-11-30 18:16:42
,wl-rdm,25,95991,0.0-6.17-0.17,0.0,26.0,,,,,,,[],,,,,,73.6,0.0,u,0.0,True,558.2999999970198,34.0,60.0,40.0,False,,246.6702630116272,[],"[800, 450]",ColorTask,10.0,18.0,,,HRV,HRV_0145,2022-11-30 18:16:42
,wl-rdm,26,98558,0.0-6.18-0.18,0.0,27.0,,,,,,,[],,,,,,53.2,1.0,i,1.0,True,1184.2999999970198,72.0,60.0,40.0,False,,304.06364420281216,[],"[800, 450]",ColorTask,11.0,19.0,,,HRV,HRV_0145,2022-11-30 18:16:42
,wl-rdm,27,100491,0.0-6.19-0.19,0.0,28.0,,,,,,,[],,,,,,73.6,0.0,u,0.0,True,536.2999999970198,33.0,60.0,40.0,False,,317.4256252536812,[],"[800, 450]",ColorTask,12.0,20.0,,,HRV,HRV_0145,2022-11-30 18:16:42
,wl-rdm,28,102341,0.0-6.20-0.20,0.0,29.0,,,,,,,[],,,,,,87.9,0.0,u,0.0,True,551.0,34.0,60.0,40.0,False,,232.47955105300431,[],"[800, 450]",ColorTask,13.0,21.0,,,HRV,HRV_0145,2022-11-30 18:16:42
,wl-rdm,29,104358,0.0-6.21-0.21,0.0,30.0,,,,,,,[],,,,,,53.2,0.0,u,0.0,True,651.4000000059605,40.0,60.0,40.0,False,,277.8666916288752,[],"[800, 450]",ColorTask,14.0,22.0,,,HRV,HRV_0145,2022-11-30 18:16:42
,wl-rdm,30,106342,0.0-6.22-0.22,0.0,31.0,,,,,,,[],,,,,,87.9,0.0,u,0.0,True,543.0,33.0,60.0,40.0,False,,367.30310443924407,[],"[800, 450]",ColorTask,15.0,23.0,,,HRV,HRV_0145,2022-11-30 18:16:42
,wl-rdm,31,108642,0.0-6.23-0.23,0.0,32.0,,,,,,,[],,,,,,53.2,0.0,u,0.0,True,956.2999999970198,58.0,60.0,40.0,False,,257.3495699387554,[],"[800, 450]",ColorTask,16.0,24.0,,,HRV,HRV_0145,2022-11-30 18:16:42
,wl-rdm,32,110624,0.0-6.24-0.24,0.0,33.0,,,,,,,[],,,,,,56.4,1.0,i,1.0,True,615.3999999910593,37.0,60.0,40.0,False,,295.74250993647604,[],"[800, 450]",ColorTask,17.0,25.0,,,HRV,HRV_0145,2022-11-30 18:16:42
,wl-rdm,33,112709,0.0-6.25-0.25,0.0,34.0,,,,,,,[],,,,,,62.5,1.0,i,1.0,True,779.1000000089407,47.0,60.0,40.0,False,,230.34754135668393,[],"[800, 450]",ColorTask,18.0,26.0,,,HRV,HRV_0145,2022-11-30 18:16:42
,wl-rdm,34,114775,0.0-6.26-0.26,0.0,35.0,,,,,,,[],,,,,,62.5,0.0,u,0.0,True,683.0,41.0,60.0,40.0,False,,320.08240481484944,[],"[800, 450]",ColorTask,19.0,27.0,,,HRV,HRV_0145,2022-11-30 18:16:42
,wl-rdm,35,116741,0.0-6.27-0.27,0.0,36.0,,,,,,,[],,,,,,56.4,1.0,i,1.0,True,585.6000000089407,36.0,60.0,40.0,False,,289.75965533509907,[],"[800, 450]",ColorTask,20.0,28.0,,,HRV,HRV_0145,2022-11-30 18:16:42
,wl-rdm,36,118725,0.0-6.28-0.28,0.0,37.0,,,,,,,[],,,,,,87.9,1.0,i,1.0,True,569.7999999970198,35.0,60.0,40.0,False,,327.4381396331118,[],"[800, 450]",ColorTask,21.0,29.0,,,HRV,HRV_0145,2022-11-30 18:16:42
,wl-rdm,37,121342,0.0-6.29-0.29,0.0,38.0,,,,,,,[],,,,,,62.5,0.0,u,0.0,True,1294.4000000059605,78.0,60.0,40.0,False,,247.4156410335478,[],"[800, 450]",ColorTask,22.0,30.0,,,HRV,HRV_0145,2022-11-30 18:16:42
,wl-rdm,38,123291,0.0-6.30-0.30,0.0,39.0,,,,,,,[],,,,,,87.9,0.0,u,0.0,True,596.1999999880791,36.0,60.0,40.0,False,,271.99744280787723,[],"[800, 450]",ColorTask,23.0,31.0,,,HRV,HRV_0145,2022-11-30 18:16:42
,wl-rdm,39,126174,0.0-6.31-0.31,0.0,40.0,,,,,,,[],,,,,,50.0,0.0,u,0.0,True,1459.0,88.0,60.0,40.0,False,,356.87250858809466,[],"[800, 450]",ColorTask,24.0,32.0,,,HRV,HRV_0145,2022-11-30 18:16:42
,wl-rdm,40,128275,0.0-6.32-0.32,0.0,41.0,,,,,,,[],,,,,,73.6,0.0,u,0.0,True,796.3999999910593,48.0,60.0,40.0,False,,245.6620764225592,[],"[800, 450]",ColorTask,25.0,33.0,,,HRV,HRV_0145,2022-11-30 18:16:42
,wl-rdm,41,130208,0.0-6.33-0.33,0.0,42.0,,,,,,,[],,,,,,62.5,1.0,i,1.0,True,632.8000000119209,38.0,60.0,40.0,False,,231.3882016755205,[],"[800, 450]",ColorTask,26.0,34.0,,,HRV,HRV_0145,2022-11-30 18:16:42
,wl-rdm,42,132141,0.0-6.34-0.34,0.0,43.0,,,,,,,[],,,,,,62.5,1.0,i,1.0,True,568.9000000059605,35.0,60.0,40.0,False,,293.58213840089405,[],"[800, 450]",ColorTask,27.0,35.0,,,HRV,HRV_0145,2022-11-30 18:16:42
,wl-rdm,43,135174,0.0-6.35-0.35,0.0,44.0,,,,,,,[],,,,,,53.2,0.0,u,0.0,True,1567.199999988079,95.0,60.0,40.0,False,,397.95371980885983,[],"[800, 450]",ColorTask,28.0,36.0,,,HRV,HRV_0145,2022-11-30 18:16:42
,wl-rdm,44,137442,0.0-6.36-0.36,0.0,45.0,,,,,,,[],,,,,,50.0,0.0,i,1.0,False,888.0,54.0,60.0,40.0,False,,304.49271089517595,[],"[800, 450]",ColorTask,27.0,37.0,,,HRV,HRV_0145,2022-11-30 18:16:42
,wl-rdm,45,140208,0.0-6.37-0.37,0.0,46.0,,,,,,,[],,,,,,53.2,0.0,u,0.0,True,1482.3999999910593,89.0,60.0,40.0,False,,232.4401192065413,[],"[800, 450]",ColorTask,28.0,38.0,,,HRV,HRV_0145,2022-11-30 18:16:42
,wl-rdm,46,142358,0.0-6.38-0.38,0.0,47.0,,,,,,,[],,,,,,56.4,1.0,u,0.0,False,702.2000000029802,43.0,60.0,40.0,False,,356.60483737533593,[],"[800, 450]",ColorTask,27.0,39.0,,,HRV,HRV_0145,2022-11-30 18:16:42
,wl-rdm,47,144508,0.0-6.39-0.39,0.0,48.0,,,,,,,[],,,,,,50.0,0.0,i,1.0,False,803.8000000119209,49.0,60.0,40.0,False,,251.16824190932678,[],"[800, 450]",ColorTask,26.0,40.0,,,HRV,HRV_0145,2022-11-30 18:16:42
,wl-rdm,48,146592,0.0-6.40-0.40,0.0,49.0,,,,,,,[],,,,,,73.6,0.0,u,0.0,True,708.5,43.0,60.0,40.0,False,,288.6919202078511,[],"[800, 450]",ColorTask,27.0,41.0,,,HRV,HRV_0145,2022-11-30 18:16:42
,wl-rdm,49,148574,0.0-6.41-0.41,0.0,50.0,,,,,,,[],,,,,,87.9,0.0,u,0.0,True,592.7000000029802,36.0,60.0,40.0,False,,327.8295142092675,[],"[800, 450]",ColorTask,28.0,42.0,,,HRV,HRV_0145,2022-11-30 18:16:42
,wl-rdm,50,150540,0.0-6.42-0.42,0.0,51.0,,,,,,,[],,,,,,53.2,0.0,i,1.0,False,651.7000000029802,40.0,60.0,40.0,False,,236.92632624649914,[],"[800, 450]",ColorTask,27.0,43.0,,,HRV,HRV_0145,2022-11-30 18:16:42
,wl-rdm,51,152841,0.0-6.43-0.43,0.0,52.0,,,,,,,[],,,,,,62.5,0.0,u,0.0,True,847.7999999970198,51.0,60.0,40.0,False,,367.5931185220715,[],"[800, 450]",ColorTask,28.0,44.0,,,HRV,HRV_0145,2022-11-30 18:16:42
,wl-rdm,52,154707,0.0-6.44-0.44,0.0,53.0,,,,,,,[],,,,,,87.9,0.0,u,0.0,True,579.0,35.0,60.0,40.0,False,,205.9886412124063,[],"[800, 450]",ColorTask,29.0,45.0,,,HRV,HRV_0145,2022-11-30 18:16:42
,wl-rdm,53,157007,0.0-6.45-0.45,0.0,54.0,,,,,,,[],,,,,,50.0,1.0,u,0.0,False,1016.1999999880791,61.0,60.0,40.0,False,,215.04591666792334,[],"[800, 450]",ColorTask,28.0,46.0,,,HRV,HRV_0145,2022-11-30 18:16:42
,wl-rdm,54,159307,0.0-6.46-0.46,0.0,55.0,,,,,,,[],,,,,,56.4,1.0,i,1.0,True,853.8999999910593,52.0,60.0,40.0,False,,357.85476374170076,[],"[800, 450]",ColorTask,29.0,47.0,,,HRV,HRV_0145,2022-11-30 18:16:42
,wl-rdm,55,161341,0.0-6.47-0.47,0.0,56.0,,,,,,,[],,,,,,87.9,0.0,u,0.0,True,619.9000000059605,38.0,60.0,40.0,False,,328.27632755450804,[],"[800, 450]",ColorTask,30.0,48.0,,,HRV,HRV_0145,2022-11-30 18:16:42
,wl-rdm,56,163240,0.0-6.48-0.48,0.0,57.0,,,,,,,[],,,,,,87.9,1.0,i,1.0,True,548.2999999970198,33.0,60.0,40.0,False,,276.29792492223265,[],"[800, 450]",ColorTask,31.0,49.0,,,HRV,HRV_0145,2022-11-30 18:16:42
,wl-rdm,57,165257,0.0-6.49-0.49,0.0,58.0,,,,,,,[],,,,,,56.4,1.0,i,1.0,True,713.4000000059605,43.0,60.0,40.0,False,,235.70656072181896,[],"[800, 450]",ColorTask,32.0,50.0,,,HRV,HRV_0145,2022-11-30 18:16:42
,wl-rdm,58,167324,0.0-6.50-0.50,0.0,59.0,,,,,,,[],,,,,,62.5,0.0,i,1.0,False,670.2000000029802,41.0,60.0,40.0,False,,307.70109021117617,[],"[800, 450]",ColorTask,31.0,51.0,,,HRV,HRV_0145,2022-11-30 18:16:42
,wl-rdm,59,169291,0.0-6.51-0.51,0.0,60.0,,,,,,,[],,,,,,73.6,0.0,u,0.0,True,629.3999999910593,38.0,60.0,40.0,False,,259.2845621034863,[],"[800, 450]",ColorTask,32.0,52.0,,,HRV,HRV_0145,2022-11-30 18:16:42
,wl-rdm,60,171474,0.0-6.52-0.52,0.0,61.0,,,,,,,[],,,,,,62.5,1.0,i,1.0,True,713.2000000029802,43.0,60.0,40.0,False,,391.9805156151982,[],"[800, 450]",ColorTask,33.0,53.0,,,HRV,HRV_0145,2022-11-30 18:16:42
,wl-rdm,61,173941,0.0-6.53-0.53,0.0,62.0,,,,,,,[],,,,,,56.4,0.0,i,1.0,False,1027.699999988079,62.0,60.0,40.0,False,,362.8223162778423,[],"[800, 450]",ColorTask,32.0,54.0,,,HRV,HRV_0145,2022-11-30 18:16:42
,wl-rdm,62,176591,0.0-6.54-0.54,0.0,63.0,,,,,,,[],,,,,,56.4,0.0,u,0.0,True,1266.9000000059605,77.0,60.0,40.0,False,,308.4594353061508,[],"[800, 450]",ColorTask,33.0,55.0,,,HRV,HRV_0145,2022-11-30 18:16:42
,wl-rdm,63,178524,0.0-6.55-0.55,0.0,64.0,,,,,,,[],,,,,,53.2,0.0,i,1.0,False,644.7000000029802,39.0,60.0,40.0,False,,201.7160796877525,[],"[800, 450]",ColorTask,32.0,56.0,,,HRV,HRV_0145,2022-11-30 18:16:42
,wl-rdm,64,180507,0.0-6.56-0.56,0.0,65.0,,,,,,,[],,,,,,73.6,1.0,i,1.0,True,620.8000000119209,38.0,60.0,40.0,False,,278.0490369097297,[],"[800, 450]",ColorTask,33.0,57.0,,,HRV,HRV_0145,2022-11-30 18:16:42
,wl-rdm,65,182374,0.0-6.57-0.57,0.0,66.0,,,,,,,[],,,,,,50.0,1.0,i,1.0,True,576.6000000089407,35.0,60.0,40.0,False,,227.9864063058329,[],"[800, 450]",ColorTask,34.0,58.0,,,HRV,HRV_0145,2022-11-30 18:16:42
,wl-rdm,66,184290,0.0-6.58-0.58,0.0,67.0,,,,,,,[],,,,,,87.9,0.0,u,0.0,True,588.3999999910593,36.0,60.0,40.0,False,,250.24199459866583,[],"[800, 450]",ColorTask,35.0,59.0,,,HRV,HRV_0145,2022-11-30 18:16:42
,wl-rdm,67,186357,0.0-6.59-0.59,0.0,68.0,,,,,,,[],,,,,,73.6,1.0,i,1.0,True,668.0999999940395,41.0,60.0,40.0,False,,314.3298041340262,[],"[800, 450]",ColorTask,36.0,60.0,,,HRV,HRV_0145,2022-11-30 18:16:42
,wl-rdm,68,188907,0.0-6.60-0.60,0.0,69.0,,,,,,,[],,,,,,53.2,1.0,i,1.0,True,1269.6000000089407,77.0,60.0,40.0,False,,204.01902846465245,[],"[800, 450]",ColorTask,37.0,61.0,,,HRV,HRV_0145,2022-11-30 18:16:42
,wl-rdm,69,190990,0.0-6.61-0.61,0.0,70.0,,,,,,,[],,,,,,62.5,1.0,i,1.0,True,717.5,44.0,60.0,40.0,False,,268.1374043633597,[],"[800, 450]",ColorTask,38.0,62.0,,,HRV,HRV_0145,2022-11-30 18:16:42
,wl-rdm,70,192891,0.0-6.62-0.62,0.0,71.0,,,,,,,[],,,,,,87.9,1.0,i,1.0,True,562.2000000029802,34.0,60.0,40.0,False,,261.7108984092867,[],"[800, 450]",ColorTask,39.0,63.0,,,HRV,HRV_0145,2022-11-30 18:16:42
,wl-rdm,71,194957,0.0-6.63-0.63,0.0,72.0,,,,,,,[],,,,,,53.2,1.0,i,1.0,True,651.0999999940395,40.0,60.0,40.0,False,,323.0531766335249,[],"[800, 450]",ColorTask,40.0,64.0,,,HRV,HRV_0145,2022-11-30 18:16:42
,wl-rdm,72,197207,0.0-6.64-0.64,0.0,73.0,,,,,,,[],,,,,,50.0,0.0,i,1.0,False,932.7999999970198,56.0,60.0,40.0,False,,254.29909887338897,[],"[800, 450]",ColorTask,39.0,65.0,,,HRV,HRV_0145,2022-11-30 18:16:42
,wl-rdm,73,199524,0.0-6.65-0.65,0.0,74.0,,,,,,,[],,,,,,56.4,1.0,i,1.0,True,869.2999999970198,53.0,60.0,40.0,False,,378.4118168860358,[],"[800, 450]",ColorTask,40.0,66.0,,,HRV,HRV_0145,2022-11-30 18:16:42
,wl-rdm,74,201374,0.0-6.66-0.66,0.0,75.0,,,,,,,[],,,,,,73.6,1.0,i,1.0,True,550.6999999880791,33.0,60.0,40.0,False,,221.44172940324896,[],"[800, 450]",ColorTask,41.0,67.0,,,HRV,HRV_0145,2022-11-30 18:16:42
,wl-rdm,75,203324,0.0-6.67-0.67,0.0,76.0,,,,,,,[],,,,,,53.2,1.0,i,1.0,True,578.4000000208616,35.0,60.0,40.0,False,,299.63802598388554,[],"[800, 450]",ColorTask,42.0,68.0,,,HRV,HRV_0145,2022-11-30 18:16:42
,wl-rdm,76,205958,0.0-6.68-0.68,0.0,77.0,,,,,,,[],,,,,,56.4,0.0,u,0.0,True,1343.5,81.0,60.0,40.0,False,,212.48928556274453,[],"[800, 450]",ColorTask,43.0,69.0,,,HRV,HRV_0145,2022-11-30 18:16:42
,wl-rdm,77,207957,0.0-6.69-0.69,0.0,78.0,,,,,,,[],,,,,,50.0,0.0,i,1.0,False,643.7999999970198,39.0,60.0,40.0,False,,280.71460674546006,[],"[800, 450]",ColorTask,42.0,70.0,,,HRV,HRV_0145,2022-11-30 18:16:42
,wl-rdm,78,210240,0.0-6.70-0.70,0.0,79.0,,,,,,,[],,,,,,73.6,0.0,u,0.0,True,997.7999999970198,60.0,60.0,40.0,False,,221.15279089556972,[],"[800, 450]",ColorTask,43.0,71.0,,,HRV,HRV_0145,2022-11-30 18:16:42
,wl-rdm,79,212523,0.0-6.71-0.71,0.0,80.0,,,,,,,[],,,,,,73.6,0.0,u,0.0,True,837.2000000029802,51.0,60.0,40.0,False,,352.8022632472457,[],"[800, 450]",ColorTask,44.0,72.0,,,HRV,HRV_0145,2022-11-30 18:16:42
,wl-rdm,80,214424,0.0-6.72-0.72,0.0,81.0,,,,,,,[],,,,,,73.6,0.0,u,0.0,True,608.4000000059605,37.0,60.0,40.0,False,,229.5427015508779,[],"[800, 450]",ColorTask,45.0,73.0,,,HRV,HRV_0145,2022-11-30 18:16:42
,wl-rdm,81,216740,0.0-6.73-0.73,0.0,82.0,,,,,,,[],,,,,,62.5,1.0,i,1.0,True,1028.0,62.0,60.0,40.0,False,,213.921776894669,[],"[800, 450]",ColorTask,46.0,74.0,,,HRV,HRV_0145,2022-11-30 18:16:42
,wl-rdm,82,218840,0.0-6.74-0.74,0.0,83.0,,,,,,,[],,,,,,73.6,0.0,u,0.0,True,796.9000000059605,48.0,60.0,40.0,False,,243.93304857131557,[],"[800, 450]",ColorTask,47.0,75.0,,,HRV,HRV_0145,2022-11-30 18:16:42
,wl-rdm,83,221590,0.0-6.75-0.75,0.0,84.0,,,,,,,[],,,,,,50.0,1.0,u,0.0,False,1450.9000000059605,88.0,60.0,40.0,False,,215.73186413604773,[],"[800, 450]",ColorTask,46.0,76.0,,,HRV,HRV_0145,2022-11-30 18:16:42
,wl-rdm,84,223773,0.0-6.76-0.76,0.0,85.0,,,,,,,[],,,,,,56.4,0.0,u,0.0,True,800.4000000059605,49.0,60.0,40.0,False,,298.41482429875236,[],"[800, 450]",ColorTask,47.0,77.0,,,HRV,HRV_0145,2022-11-30 18:16:42
,wl-rdm,85,226223,0.0-6.77-0.77,0.0,86.0,,,,,,,[],,,,,,62.5,0.0,u,0.0,True,1072.5,65.0,60.0,40.0,False,,303.1100063606666,[],"[800, 450]",ColorTask,48.0,78.0,,,HRV,HRV_0145,2022-11-30 18:16:42
,wl-rdm,86,228507,0.0-6.78-0.78,0.0,87.0,,,,,,,[],,,,,,62.5,1.0,i,1.0,True,920.1000000089407,56.0,60.0,40.0,False,,293.2470657828561,[],"[800, 450]",ColorTask,49.0,79.0,,,HRV,HRV_0145,2022-11-30 18:16:42
,wl-rdm,87,230523,0.0-6.79-0.79,0.0,88.0,,,,,,,[],,,,,,53.2,1.0,i,1.0,True,560.7000000029802,34.0,60.0,40.0,False,,399.4379984710434,[],"[800, 450]",ColorTask,50.0,80.0,,,HRV,HRV_0145,2022-11-30 18:16:42
,wl-rdm,88,232473,0.0-6.80-0.80,0.0,89.0,,,,,,,[],,,,,,50.0,1.0,i,1.0,True,554.4000000059605,34.0,60.0,40.0,False,,321.57267795331063,[],"[800, 450]",ColorTask,51.0,81.0,,,HRV,HRV_0145,2022-11-30 18:16:42
,wl-rdm,89,234557,0.0-6.81-0.81,0.0,90.0,,,,,,,[],,,,,,73.6,1.0,i,1.0,True,727.3000000119209,44.0,60.0,40.0,False,,282.44394836317923,[],"[800, 450]",ColorTask,52.0,82.0,,,HRV,HRV_0145,2022-11-30 18:16:42
,wl-rdm,90,236490,0.0-6.82-0.82,0.0,91.0,,,,,,,[],,,,,,73.6,1.0,i,1.0,True,628.8000000119209,38.0,60.0,40.0,False,,245.85927438392366,[],"[800, 450]",ColorTask,53.0,83.0,,,HRV,HRV_0145,2022-11-30 18:16:42
,wl-rdm,91,238957,0.0-6.83-0.83,0.0,92.0,,,,,,,[],,,,,,50.0,1.0,u,0.0,False,1076.0000000149012,65.0,60.0,40.0,False,,325.3081371923573,[],"[800, 450]",ColorTask,52.0,84.0,,,HRV,HRV_0145,2022-11-30 18:16:42
,wl-rdm,92,241006,0.0-6.84-0.84,0.0,93.0,,,,,,,[],,,,,,73.6,1.0,i,1.0,True,641.5000000149012,39.0,60.0,40.0,False,,329.65811030213695,[],"[800, 450]",ColorTask,53.0,85.0,,,HRV,HRV_0145,2022-11-30 18:16:42
,wl-rdm,93,243173,0.0-6.85-0.85,0.0,94.0,,,,,,,[],,,,,,62.5,0.0,u,0.0,True,859.1000000089407,52.0,60.0,40.0,False,,230.20361058618698,[],"[800, 450]",ColorTask,54.0,86.0,,,HRV,HRV_0145,2022-11-30 18:16:42
,wl-rdm,94,245190,0.0-6.86-0.86,0.0,95.0,,,,,,,[],,,,,,50.0,1.0,i,1.0,True,667.7000000029802,41.0,60.0,40.0,False,,260.23609944504574,[],"[800, 450]",ColorTask,55.0,87.0,,,HRV,HRV_0145,2022-11-30 18:16:42
,wl-rdm,95,247274,0.0-6.87-0.87,0.0,96.0,,,,,,,[],,,,,,53.2,1.0,i,1.0,True,804.5,49.0,60.0,40.0,False,,212.4441132952741,[],"[800, 450]",ColorTask,56.0,88.0,,,HRV,HRV_0145,2022-11-30 18:16:42
,wl-rdm,96,249257,0.0-6.88-0.88,0.0,97.0,,,,,,,[],,,,,,56.4,0.0,i,1.0,False,689.2000000029802,42.0,60.0,40.0,False,,203.40516203548782,[],"[800, 450]",ColorTask,55.0,89.0,,,HRV,HRV_0145,2022-11-30 18:16:42
,wl-rdm,97,251306,0.0-6.89-0.89,0.0,98.0,,,,,,,[],,,,,,56.4,1.0,i,1.0,True,710.9000000059605,43.0,60.0,40.0,False,,281.7160371473517,[],"[800, 450]",ColorTask,56.0,90.0,,,HRV,HRV_0145,2022-11-30 18:16:42
,wl-rdm,98,253924,0.0-6.90-0.90,0.0,99.0,,,,,,,[],,,,,,53.2,0.0,i,1.0,False,1286.7000000029802,78.0,60.0,40.0,False,,240.59526934036975,[],"[800, 450]",ColorTask,55.0,91.0,,,HRV,HRV_0145,2022-11-30 18:16:42
,wl-rdm,99,256323,0.0-6.91-0.91,0.0,100.0,,,,,,,[],,,,,,50.0,0.0,u,0.0,True,1060.5,64.0,60.0,40.0,False,,259.72081123560196,[],"[800, 450]",ColorTask,56.0,92.0,,,HRV,HRV_0145,2022-11-30 18:16:42
,wl-rdm,100,258707,0.0-6.92-0.92,0.0,101.0,,,,,,,[],,,,,,62.5,0.0,u,0.0,True,920.0,56.0,60.0,40.0,False,,395.2720430121,[],"[800, 450]",ColorTask,57.0,93.0,,,HRV,HRV_0145,2022-11-30 18:16:42
,wl-rdm,101,260690,0.0-6.93-0.93,0.0,102.0,,,,,,,[],,,,,,53.2,0.0,i,1.0,False,628.0999999940395,38.0,60.0,40.0,False,,293.0696687163397,[],"[800, 450]",ColorTask,56.0,94.0,,,HRV,HRV_0145,2022-11-30 18:16:42
,wl-rdm,102,262756,0.0-6.94-0.94,0.0,103.0,,,,,,,[],,,,,,56.4,0.0,i,1.0,False,675.2000000029802,41.0,60.0,40.0,False,,329.06757596826264,[],"[800, 450]",ColorTask,55.0,95.0,,,HRV,HRV_0145,2022-11-30 18:16:42
,wl-rdm,103,264990,0.0-6.95-0.95,0.0,104.0,,,,,,,[],,,,,,56.4,0.0,i,1.0,False,940.6999999880791,57.0,60.0,40.0,False,,225.11125264672162,[],"[800, 450]",ColorTask,54.0,96.0,,,HRV,HRV_0145,2022-11-30 18:16:42
,wl-rdm,104,267190,0.0-6.96-0.96,0.0,105.0,,,,,,,[],,,,,,73.6,1.0,i,1.0,True,907.4000000059605,55.0,60.0,40.0,False,,231.80869983969467,[],"[800, 450]",ColorTask,55.0,97.0,,,HRV,HRV_0145,2022-11-30 18:16:42
,wl-rdm,105,269455,0.0-6.97-0.97,0.0,106.0,,,,,,,[],,,,,,62.5,0.0,u,0.0,True,939.7000000029802,57.0,60.0,40.0,False,,239.15631634026758,[],"[800, 450]",ColorTask,56.0,98.0,,,HRV,HRV_0145,2022-11-30 18:16:42
,wl-rdm,106,271772,0.0-6.98-0.98,0.0,107.0,,,,,,,[],,,,,,50.0,0.0,u,0.0,True,1026.9000000059605,62.0,60.0,40.0,False,,213.42676004489755,[],"[800, 450]",ColorTask,57.0,99.0,,,HRV,HRV_0145,2022-11-30 18:16:42
,wl-rdm,107,274139,0.0-6.99-0.99,0.0,108.0,,,,,,,[],,,,,,50.0,1.0,i,1.0,True,1042.5999999940395,63.0,60.0,40.0,False,,248.3870839986378,[],"[800, 450]",ColorTask,58.0,100.0,,,HRV,HRV_0145,2022-11-30 18:16:42
,wl-rdm,108,276239,0.0-6.100-0.100,0.0,109.0,,,,,,,[],,,,,,73.6,1.0,i,1.0,True,681.2999999970198,41.0,60.0,40.0,False,,333.3980874701055,[],"[800, 450]",ColorTask,59.0,101.0,,,HRV,HRV_0145,2022-11-30 18:16:42
,wl-rdm,109,278289,0.0-6.101-0.101,0.0,110.0,,,,,,,[],,,,,,87.9,1.0,i,1.0,True,603.7999999970198,37.0,60.0,40.0,False,,350.84599030038873,[],"[800, 450]",ColorTask,60.0,102.0,,,HRV,HRV_0145,2022-11-30 18:16:42
,wl-rdm,110,280239,0.0-6.102-0.102,0.0,111.0,,,,,,,[],,,,,,87.9,1.0,i,1.0,True,591.1000000089407,36.0,60.0,40.0,False,,268.75744167058247,[],"[800, 450]",ColorTask,61.0,103.0,,,HRV,HRV_0145,2022-11-30 18:16:42
,wl-rdm,111,282955,0.0-6.103-0.103,0.0,112.0,,,,,,,[],,,,,,53.2,1.0,i,1.0,True,1393.1000000089407,84.0,60.0,40.0,False,,244.23122767654843,[],"[800, 450]",ColorTask,62.0,104.0,,,HRV,HRV_0145,2022-11-30 18:16:42
,wl-rdm,112,285606,0.0-6.104-0.104,0.0,113.0,,,,,,,[],,,,,,50.0,0.0,i,1.0,False,1183.300000011921,72.0,60.0,40.0,False,,395.75425314144275,[],"[800, 450]",ColorTask,61.0,105.0,,,HRV,HRV_0145,2022-11-30 18:16:42
,wl-rdm,113,288256,0.0-6.105-0.105,0.0,114.0,,,,,,,[],,,,,,56.4,1.0,i,1.0,True,1363.0999999940395,82.0,60.0,40.0,False,,225.99256538781597,[],"[800, 450]",ColorTask,62.0,106.0,,,HRV,HRV_0145,2022-11-30 18:16:42
,wl-rdm,114,290239,0.0-6.106-0.106,0.0,115.0,,,,,,,[],,,,,,56.4,1.0,i,1.0,True,622.5,38.0,60.0,40.0,False,,298.19270156730704,[],"[800, 450]",ColorTask,63.0,107.0,,,HRV,HRV_0145,2022-11-30 18:16:42
,wl-rdm,115,292156,0.0-6.107-0.107,0.0,116.0,,,,,,,[],,,,,,87.9,1.0,i,1.0,True,527.0,32.0,60.0,40.0,False,,307.76641021526643,[],"[800, 450]",ColorTask,64.0,108.0,,,HRV,HRV_0145,2022-11-30 18:16:42
,wl-html-keyboard-response,116,355396,0.0-7.0-0.0,1.0,117.0,,,,,,,,61235.09999999404,1.0,0,,,,,,,,,,,,,,,,,,,,,,HRV,HRV_0145,2022-11-30 18:16:42
,wl-rdm,117,357821,0.0-8.0-0.0,1.0,118.0,,,,,,,[],,,,,,56.4,0.0,i,1.0,False,1089.5,66.0,60.0,40.0,False,,269.61745640330787,[],"[800, 450]",ColorTask,63.0,1.0,,,HRV,HRV_0145,2022-11-30 18:16:42
,wl-rdm,118,360488,0.0-8.1-0.1,1.0,119.0,,,,,,,[],,,,,,53.2,0.0,u,0.0,True,1337.8999999910593,81.0,60.0,40.0,False,,241.90103720015327,[],"[800, 450]",ColorTask,64.0,2.0,,,HRV,HRV_0145,2022-11-30 18:16:42
,wl-rdm,119,362438,0.0-8.2-0.2,1.0,120.0,,,,,,,[],,,,,,56.4,1.0,i,1.0,True,648.7000000029802,39.0,60.0,40.0,False,,228.18977731632748,[],"[800, 450]",ColorTask,65.0,3.0,,,HRV,HRV_0145,2022-11-30 18:16:42
,wl-rdm,120,364422,0.0-8.3-0.3,1.0,121.0,,,,,,,[],,,,,,87.9,0.0,u,0.0,True,648.2999999970198,39.0,60.0,40.0,False,,267.5138372423031,[],"[800, 450]",ColorTask,66.0,4.0,,,HRV,HRV_0145,2022-11-30 18:16:42
,wl-rdm,121,366254,0.0-8.4-0.4,1.0,122.0,,,,,,,[],,,,,,87.9,1.0,i,1.0,True,530.2999999970198,32.0,60.0,40.0,False,,245.53288240462788,[],"[800, 450]",ColorTask,67.0,5.0,,,HRV,HRV_0145,2022-11-30 18:16:42
,wl-rdm,122,368121,0.0-8.5-0.5,1.0,123.0,,,,,,,[],,,,,,73.6,1.0,i,1.0,True,452.20000000298023,28.0,60.0,40.0,False,,341.5911393737647,[],"[800, 450]",ColorTask,68.0,6.0,,,HRV,HRV_0145,2022-11-30 18:16:42
,wl-rdm,123,370204,0.0-8.6-0.6,1.0,124.0,,,,,,,[],,,,,,53.2,0.0,i,1.0,False,758.0,46.0,60.0,40.0,False,,264.79165421199014,[],"[800, 450]",ColorTask,67.0,7.0,,,HRV,HRV_0145,2022-11-30 18:16:42
,wl-rdm,124,373171,0.0-8.7-0.7,1.0,125.0,,,,,,,[],,,,,,53.2,1.0,u,0.0,False,1667.7999999970198,101.0,60.0,40.0,False,,233.0025737119961,[],"[800, 450]",ColorTask,66.0,8.0,,,HRV,HRV_0145,2022-11-30 18:16:42
,wl-rdm,125,375138,0.0-8.8-0.8,1.0,126.0,,,,,,,[],,,,,,50.0,1.0,i,1.0,True,626.0,38.0,60.0,40.0,False,,266.4973670250666,[],"[800, 450]",ColorTask,67.0,9.0,,,HRV,HRV_0145,2022-11-30 18:16:42
,wl-rdm,126,377204,0.0-8.9-0.9,1.0,127.0,,,,,,,[],,,,,,62.5,0.0,u,0.0,True,757.7000000029802,46.0,60.0,40.0,False,,234.44233407005652,[],"[800, 450]",ColorTask,68.0,10.0,,,HRV,HRV_0145,2022-11-30 18:16:42
,wl-rdm,127,379688,0.0-8.10-0.10,1.0,128.0,,,,,,,[],,,,,,53.2,1.0,u,0.0,False,1028.7000000029802,62.0,60.0,40.0,False,,398.0725209982878,[],"[800, 450]",ColorTask,67.0,11.0,,,HRV,HRV_0145,2022-11-30 18:16:42
,wl-rdm,128,382038,0.0-8.11-0.11,1.0,129.0,,,,,,,[],,,,,,50.0,0.0,i,1.0,False,990.1000000089407,60.0,60.0,40.0,False,,291.1109961820779,[],"[800, 450]",ColorTask,66.0,12.0,,,HRV,HRV_0145,2022-11-30 18:16:42
,wl-rdm,129,384388,0.0-8.12-0.12,1.0,130.0,,,,,,,[],,,,,,56.4,1.0,i,1.0,True,1025.1000000089407,62.0,60.0,40.0,False,,245.47598073610754,[],"[800, 450]",ColorTask,67.0,13.0,,,HRV,HRV_0145,2022-11-30 18:16:42
,wl-rdm,130,386971,0.0-8.13-0.13,1.0,131.0,,,,,,,[],,,,,,50.0,1.0,u,0.0,False,1301.0999999940395,79.0,60.0,40.0,False,,214.71659758189233,[],"[800, 450]",ColorTask,66.0,14.0,,,HRV,HRV_0145,2022-11-30 18:16:42
,wl-rdm,131,389153,0.0-8.14-0.14,1.0,132.0,,,,,,,[],,,,,,56.4,1.0,i,1.0,True,859.1999999880791,52.0,60.0,40.0,False,,241.4973021077185,[],"[800, 450]",ColorTask,67.0,15.0,,,HRV,HRV_0145,2022-11-30 18:16:42
,wl-rdm,132,391203,0.0-8.15-0.15,1.0,133.0,,,,,,,[],,,,,,73.6,1.0,i,1.0,True,583.2000000029802,35.0,60.0,40.0,False,,395.4111005869054,[],"[800, 450]",ColorTask,68.0,16.0,,,HRV,HRV_0145,2022-11-30 18:16:42
,wl-rdm,133,393286,0.0-8.16-0.16,1.0,134.0,,,,,,,[],,,,,,53.2,0.0,i,1.0,False,712.2000000029802,43.0,60.0,40.0,False,,315.3476535891191,[],"[800, 450]",ColorTask,67.0,17.0,,,HRV,HRV_0145,2022-11-30 18:16:42
,wl-rdm,134,395203,0.0-8.17-0.17,1.0,135.0,,,,,,,[],,,,,,56.4,1.0,i,1.0,True,640.2999999970198,39.0,60.0,40.0,False,,201.67030732088455,[],"[800, 450]",ColorTask,68.0,18.0,,,HRV,HRV_0145,2022-11-30 18:16:42
,wl-rdm,135,397387,0.0-8.18-0.18,1.0,136.0,,,,,,,[],,,,,,62.5,0.0,u,0.0,True,892.3999999910593,54.0,60.0,40.0,False,,212.76921860787556,[],"[800, 450]",ColorTask,69.0,19.0,,,HRV,HRV_0145,2022-11-30 18:16:42
,wl-rdm,136,399403,0.0-8.19-0.19,1.0,137.0,,,,,,,[],,,,,,73.6,1.0,i,1.0,True,641.7999999970198,39.0,60.0,40.0,False,,287.1876015654293,[],"[800, 450]",ColorTask,70.0,20.0,,,HRV,HRV_0145,2022-11-30 18:16:42
,wl-rdm,137,402170,0.0-8.20-0.20,1.0,138.0,,,,,,,[],,,,,,56.4,0.0,u,0.0,True,1317.7000000029802,80.0,60.0,40.0,False,,380.9876639998901,[],"[800, 450]",ColorTask,71.0,21.0,,,HRV,HRV_0145,2022-11-30 18:16:42
,wl-rdm,138,404336,0.0-8.21-0.21,1.0,139.0,,,,,,,[],,,,,,53.2,1.0,i,1.0,True,785.5,48.0,60.0,40.0,False,,295.4542578265917,[],"[800, 450]",ColorTask,72.0,22.0,,,HRV,HRV_0145,2022-11-30 18:16:42
,wl-rdm,139,406386,0.0-8.22-0.22,1.0,140.0,,,,,,,[],,,,,,87.9,0.0,u,0.0,True,741.7999999970198,45.0,60.0,40.0,False,,223.73394308329515,[],"[800, 450]",ColorTask,73.0,23.0,,,HRV,HRV_0145,2022-11-30 18:16:42
,wl-rdm,140,408386,0.0-8.23-0.23,1.0,141.0,,,,,,,[],,,,,,87.9,0.0,u,0.0,True,534.0,33.0,60.0,40.0,False,,376.5789043418507,[],"[800, 450]",ColorTask,74.0,24.0,,,HRV,HRV_0145,2022-11-30 18:16:42
,wl-rdm,141,410803,0.0-8.24-0.24,1.0,142.0,,,,,,,[],,,,,,50.0,0.0,u,0.0,True,982.1000000089407,59.0,60.0,40.0,False,,379.47790347553246,[],"[800, 450]",ColorTask,75.0,25.0,,,HRV,HRV_0145,2022-11-30 18:16:42
,wl-rdm,142,412903,0.0-8.25-0.25,1.0,143.0,,,,,,,[],,,,,,62.5,0.0,u,0.0,True,795.0999999940395,48.0,60.0,40.0,False,,230.46475099380163,[],"[800, 450]",ColorTask,76.0,26.0,,,HRV,HRV_0145,2022-11-30 18:16:42
,wl-rdm,143,415153,0.0-8.26-0.26,1.0,144.0,,,,,,,[],,,,,,62.5,0.0,i,1.0,False,784.0999999940395,48.0,60.0,40.0,False,,377.316588107626,[],"[800, 450]",ColorTask,75.0,27.0,,,HRV,HRV_0145,2022-11-30 18:16:42
,wl-rdm,144,417154,0.0-8.27-0.27,1.0,145.0,,,,,,,[],,,,,,50.0,0.0,i,1.0,False,625.7000000029802,38.0,60.0,40.0,False,,294.86149351821496,[],"[800, 450]",ColorTask,74.0,28.0,,,HRV,HRV_0145,2022-11-30 18:16:42
,wl-rdm,145,419187,0.0-8.28-0.28,1.0,146.0,,,,,,,[],,,,,,53.2,0.0,i,1.0,False,733.0999999940395,44.0,60.0,40.0,False,,249.11423857422696,[],"[800, 450]",ColorTask,73.0,29.0,,,HRV,HRV_0145,2022-11-30 18:16:42
,wl-rdm,146,421286,0.0-8.29-0.29,1.0,147.0,,,,,,,[],,,,,,73.6,0.0,u,0.0,True,621.0999999940395,38.0,60.0,40.0,False,,394.7241859927088,[],"[800, 450]",ColorTask,74.0,30.0,,,HRV,HRV_0145,2022-11-30 18:16:42
,wl-rdm,147,423904,0.0-8.30-0.30,1.0,148.0,,,,,,,[],,,,,,53.2,0.0,i,1.0,False,1319.7999999970198,80.0,60.0,40.0,False,,218.02393588600617,[],"[800, 450]",ColorTask,73.0,31.0,,,HRV,HRV_0145,2022-11-30 18:16:42
,wl-rdm,148,425836,0.0-8.31-0.31,1.0,149.0,,,,,,,[],,,,,,87.9,0.0,u,0.0,True,663.1000000089407,40.0,60.0,40.0,False,,203.29001378047036,[],"[800, 450]",ColorTask,74.0,32.0,,,HRV,HRV_0145,2022-11-30 18:16:42
,wl-rdm,149,428386,0.0-8.32-0.32,1.0,150.0,,,,,,,[],,,,,,56.4,1.0,u,0.0,False,1200.8999999910593,73.0,60.0,40.0,False,,256.82221390817745,[],"[800, 450]",ColorTask,73.0,33.0,,,HRV,HRV_0145,2022-11-30 18:16:42
,wl-rdm,150,430836,0.0-8.33-0.33,1.0,151.0,,,,,,,[],,,,,,50.0,0.0,u,0.0,True,1106.1000000089407,67.0,60.0,40.0,False,,272.44561801738223,[],"[800, 450]",ColorTask,74.0,34.0,,,HRV,HRV_0145,2022-11-30 18:16:42
,wl-rdm,151,432704,0.0-8.34-0.34,1.0,152.0,,,,,,,[],,,,,,73.6,1.0,i,1.0,True,586.8000000119209,36.0,60.0,40.0,False,,201.99770825158626,[],"[800, 450]",ColorTask,75.0,35.0,,,HRV,HRV_0145,2022-11-30 18:16:42
,wl-rdm,152,434769,0.0-8.35-0.35,1.0,153.0,,,,,,,[],,,,,,73.6,0.0,u,0.0,True,741.8999999910593,45.0,60.0,40.0,False,,247.48311525783882,[],"[800, 450]",ColorTask,76.0,36.0,,,HRV,HRV_0145,2022-11-30 18:16:42
,wl-rdm,153,436686,0.0-8.36-0.36,1.0,154.0,,,,,,,[],,,,,,53.2,0.0,i,1.0,False,637.7000000178814,39.0,60.0,40.0,False,,207.95899775639847,[],"[800, 450]",ColorTask,75.0,37.0,,,HRV,HRV_0145,2022-11-30 18:16:42
,wl-rdm,154,439137,0.0-8.37-0.37,1.0,155.0,,,,,,,[],,,,,,53.2,1.0,i,1.0,True,1084.2000000029802,66.0,60.0,40.0,False,,289.2524557522052,[],"[800, 450]",ColorTask,76.0,38.0,,,HRV,HRV_0145,2022-11-30 18:16:42
,wl-rdm,155,441720,0.0-8.38-0.38,1.0,156.0,,,,,,,[],,,,,,73.6,0.0,u,0.0,True,1310.5999999940395,79.0,60.0,40.0,False,,216.16020584322342,[],"[800, 450]",ColorTask,77.0,39.0,,,HRV,HRV_0145,2022-11-30 18:16:42
,wl-rdm,156,443687,0.0-8.39-0.39,1.0,157.0,,,,,,,[],,,,,,87.9,1.0,i,1.0,True,653.8000000119209,40.0,60.0,40.0,False,,233.72739684927421,[],"[800, 450]",ColorTask,78.0,40.0,,,HRV,HRV_0145,2022-11-30 18:16:42
,wl-rdm,157,445820,0.0-8.40-0.40,1.0,158.0,,,,,,,[],,,,,,56.4,1.0,i,1.0,True,781.1000000089407,47.0,60.0,40.0,False,,292.101257339632,[],"[800, 450]",ColorTask,79.0,41.0,,,HRV,HRV_0145,2022-11-30 18:16:42
,wl-rdm,158,448453,0.0-8.41-0.41,1.0,159.0,,,,,,,[],,,,,,50.0,1.0,i,1.0,True,1164.1000000089407,70.0,60.0,40.0,False,,392.5336516181518,[],"[800, 450]",ColorTask,80.0,42.0,,,HRV,HRV_0145,2022-11-30 18:16:42
,wl-rdm,159,450487,0.0-8.42-0.42,1.0,160.0,,,,,,,[],,,,,,87.9,1.0,i,1.0,True,637.4000000059605,39.0,60.0,40.0,False,,304.92204991996556,[],"[800, 450]",ColorTask,81.0,43.0,,,HRV,HRV_0145,2022-11-30 18:16:42
,wl-rdm,160,452353,0.0-8.43-0.43,1.0,161.0,,,,,,,[],,,,,,73.6,1.0,i,1.0,True,475.3999999910593,29.0,60.0,40.0,False,,320.8159521337573,[],"[800, 450]",ColorTask,82.0,44.0,,,HRV,HRV_0145,2022-11-30 18:16:42
,wl-rdm,161,454270,0.0-8.44-0.44,1.0,162.0,,,,,,,[],,,,,,62.5,1.0,i,1.0,True,512.8000000119209,31.0,60.0,40.0,False,,323.4436839023917,[],"[800, 450]",ColorTask,83.0,45.0,,,HRV,HRV_0145,2022-11-30 18:16:42
,wl-rdm,162,456170,0.0-8.45-0.45,1.0,163.0,,,,,,,[],,,,,,53.2,0.0,i,1.0,False,584.8999999910593,36.0,60.0,40.0,False,,233.0312885173015,[],"[800, 450]",ColorTask,82.0,46.0,,,HRV,HRV_0145,2022-11-30 18:16:42
,wl-rdm,163,458020,0.0-8.46-0.46,1.0,164.0,,,,,,,[],,,,,,87.9,1.0,i,1.0,True,550.0,34.0,60.0,40.0,False,,207.65768118885066,[],"[800, 450]",ColorTask,83.0,47.0,,,HRV,HRV_0145,2022-11-30 18:16:42
,wl-rdm,164,460220,0.0-8.47-0.47,1.0,165.0,,,,,,,[],,,,,,62.5,0.0,u,0.0,True,839.7000000029802,51.0,60.0,40.0,False,,283.385211052863,[],"[800, 450]",ColorTask,84.0,48.0,,,HRV,HRV_0145,2022-11-30 18:16:42
,wl-rdm,165,462553,0.0-8.48-0.48,1.0,166.0,,,,,,,[],,,,,,56.4,0.0,u,0.0,True,910.7000000029802,55.0,60.0,40.0,False,,337.55329949802785,[],"[800, 450]",ColorTask,85.0,49.0,,,HRV,HRV_0145,2022-11-30 18:16:42
,wl-rdm,166,464587,0.0-8.49-0.49,1.0,167.0,,,,,,,[],,,,,,62.5,1.0,i,1.0,True,598.7999999970198,36.0,60.0,40.0,False,,382.37655453288403,[],"[800, 450]",ColorTask,86.0,50.0,,,HRV,HRV_0145,2022-11-30 18:16:42
,wl-rdm,167,466470,0.0-8.50-0.50,1.0,168.0,,,,,,,[],,,,,,56.4,0.0,i,1.0,False,546.8000000119209,33.0,60.0,40.0,False,,260.32837206286405,[],"[800, 450]",ColorTask,85.0,51.0,,,HRV,HRV_0145,2022-11-30 18:16:42
,wl-rdm,168,468553,0.0-8.51-0.51,1.0,169.0,,,,,,,[],,,,,,87.9,1.0,i,1.0,True,649.7999999970198,40.0,60.0,40.0,False,,361.986085921303,[],"[800, 450]",ColorTask,86.0,52.0,,,HRV,HRV_0145,2022-11-30 18:16:42
,wl-rdm,169,470719,0.0-8.52-0.52,1.0,170.0,,,,,,,[],,,,,,73.6,0.0,u,0.0,True,703.5,43.0,60.0,40.0,False,,370.3403686222723,[],"[800, 450]",ColorTask,87.0,53.0,,,HRV,HRV_0145,2022-11-30 18:16:42
,wl-rdm,170,473170,0.0-8.53-0.53,1.0,171.0,,,,,,,[],,,,,,56.4,1.0,i,1.0,True,1125.9000000059605,68.0,60.0,40.0,False,,236.18654939662866,[],"[800, 450]",ColorTask,88.0,54.0,,,HRV,HRV_0145,2022-11-30 18:16:42
,wl-rdm,171,475736,0.0-8.54-0.54,1.0,172.0,,,,,,,[],,,,,,50.0,1.0,i,1.0,True,1202.3999999910593,73.0,60.0,40.0,False,,280.92968659829853,[],"[800, 450]",ColorTask,89.0,55.0,,,HRV,HRV_0145,2022-11-30 18:16:42
,wl-rdm,172,477820,0.0-8.55-0.55,1.0,173.0,,,,,,,[],,,,,,62.5,1.0,i,1.0,True,640.8999999910593,39.0,60.0,40.0,False,,350.8416766704156,[],"[800, 450]",ColorTask,90.0,56.0,,,HRV,HRV_0145,2022-11-30 18:16:42
,wl-rdm,173,479720,0.0-8.56-0.56,1.0,174.0,,,,,,,[],,,,,,62.5,1.0,i,1.0,True,587.0,36.0,60.0,40.0,False,,222.05739266444346,[],"[800, 450]",ColorTask,91.0,57.0,,,HRV,HRV_0145,2022-11-30 18:16:42
,wl-rdm,174,482586,0.0-8.57-0.57,1.0,175.0,,,,,,,[],,,,,,56.4,0.0,u,0.0,True,1516.2999999970198,91.0,60.0,40.0,False,,283.5993458984871,[],"[800, 450]",ColorTask,92.0,58.0,,,HRV,HRV_0145,2022-11-30 18:16:42
,wl-rdm,175,484603,0.0-8.58-0.58,1.0,176.0,,,,,,,[],,,,,,62.5,1.0,i,1.0,True,657.4000000059605,40.0,60.0,40.0,False,,296.18016278203305,[],"[800, 450]",ColorTask,93.0,59.0,,,HRV,HRV_0145,2022-11-30 18:16:42
,wl-rdm,176,487203,0.0-8.59-0.59,1.0,177.0,,,,,,,[],,,,,,56.4,0.0,i,1.0,False,1207.4000000059605,73.0,60.0,40.0,False,,311.797515686392,[],"[800, 450]",ColorTask,92.0,60.0,,,HRV,HRV_0145,2022-11-30 18:16:42
,wl-rdm,177,489253,0.0-8.60-0.60,1.0,178.0,,,,,,,[],,,,,,62.5,1.0,i,1.0,True,722.9000000059605,44.0,60.0,40.0,False,,238.91271969785672,[],"[800, 450]",ColorTask,93.0,61.0,,,HRV,HRV_0145,2022-11-30 18:16:42
,wl-rdm,178,491620,0.0-8.61-0.61,1.0,179.0,,,,,,,[],,,,,,62.5,0.0,u,0.0,True,1081.4000000059605,65.0,60.0,40.0,False,,214.0248362443116,[],"[800, 450]",ColorTask,94.0,62.0,,,HRV,HRV_0145,2022-11-30 18:16:42
,wl-rdm,179,494519,0.0-8.62-0.62,1.0,180.0,,,,,,,[],,,,,,50.0,1.0,i,1.0,True,1569.5,95.0,60.0,40.0,False,,236.44085168861594,[],"[800, 450]",ColorTask,95.0,63.0,,,HRV,HRV_0145,2022-11-30 18:16:42
,wl-rdm,180,496904,0.0-8.63-0.63,1.0,181.0,,,,,,,[],,,,,,62.5,0.0,u,0.0,True,1103.8999999910593,67.0,60.0,40.0,False,,209.53962474605999,[],"[800, 450]",ColorTask,96.0,64.0,,,HRV,HRV_0145,2022-11-30 18:16:42
,wl-rdm,181,498820,0.0-8.64-0.64,1.0,182.0,,,,,,,[],,,,,,87.9,0.0,u,0.0,True,614.7000000178814,37.0,60.0,40.0,False,,242.61376761795833,[],"[800, 450]",ColorTask,97.0,65.0,,,HRV,HRV_0145,2022-11-30 18:16:42
,wl-rdm,182,500969,0.0-8.65-0.65,1.0,183.0,,,,,,,[],,,,,,50.0,1.0,i,1.0,True,859.1999999880791,52.0,60.0,40.0,False,,207.7602182709608,[],"[800, 450]",ColorTask,98.0,66.0,,,HRV,HRV_0145,2022-11-30 18:16:42
,wl-rdm,183,502937,0.0-8.66-0.66,1.0,184.0,,,,,,,[],,,,,,56.4,0.0,u,0.0,True,676.4000000059605,41.0,60.0,40.0,False,,225.4545563538471,[],"[800, 450]",ColorTask,99.0,67.0,,,HRV,HRV_0145,2022-11-30 18:16:42
,wl-rdm,184,505436,0.0-8.67-0.67,1.0,185.0,,,,,,,[],,,,,,56.4,0.0,i,1.0,False,1063.7999999821186,64.0,60.0,40.0,False,,370.30720349923956,[],"[800, 450]",ColorTask,98.0,68.0,,,HRV,HRV_0145,2022-11-30 18:16:42
,wl-rdm,185,507670,0.0-8.68-0.68,1.0,186.0,,,,,,,[],,,,,,50.0,1.0,u,0.0,False,812.2999999970198,49.0,60.0,40.0,False,,356.9910226451775,[],"[800, 450]",ColorTask,97.0,69.0,,,HRV,HRV_0145,2022-11-30 18:16:42
,wl-rdm,186,510286,0.0-8.69-0.69,1.0,187.0,,,,,,,[],,,,,,56.4,0.0,u,0.0,True,1281.0999999940395,77.0,60.0,40.0,False,,259.1321979672331,[],"[800, 450]",ColorTask,98.0,70.0,,,HRV,HRV_0145,2022-11-30 18:16:42
,wl-rdm,187,512785,0.0-8.70-0.70,1.0,188.0,,,,,,,[],,,,,,50.0,1.0,u,0.0,False,1033.2999999970198,63.0,60.0,40.0,False,,374.1627861297529,[],"[800, 450]",ColorTask,97.0,71.0,,,HRV,HRV_0145,2022-11-30 18:16:42
,wl-rdm,188,514819,0.0-8.71-0.71,1.0,189.0,,,,,,,[],,,,,,50.0,0.0,i,1.0,False,648.0999999940395,39.0,60.0,40.0,False,,308.24893557984683,[],"[800, 450]",ColorTask,96.0,72.0,,,HRV,HRV_0145,2022-11-30 18:16:42
,wl-rdm,189,516736,0.0-8.72-0.72,1.0,190.0,,,,,,,[],,,,,,62.5,1.0,i,1.0,True,585.7000000029802,36.0,60.0,40.0,False,,236.78302688886265,[],"[800, 450]",ColorTask,97.0,73.0,,,HRV,HRV_0145,2022-11-30 18:16:42
,wl-rdm,190,519185,0.0-8.73-0.73,1.0,191.0,,,,,,,[],,,,,,50.0,0.0,u,0.0,True,1082.2999999970198,65.0,60.0,40.0,False,,301.56156604920005,[],"[800, 450]",ColorTask,98.0,74.0,,,HRV,HRV_0145,2022-11-30 18:16:42
,wl-rdm,191,521518,0.0-8.74-0.74,1.0,192.0,,,,,,,[],,,,,,53.2,1.0,u,0.0,False,877.6000000089407,53.0,60.0,40.0,False,,367.9219115151719,[],"[800, 450]",ColorTask,97.0,75.0,,,HRV,HRV_0145,2022-11-30 18:16:42
,wl-rdm,192,523586,0.0-8.75-0.75,1.0,193.0,,,,,,,[],,,,,,50.0,0.0,u,0.0,True,634.2999999970198,39.0,60.0,40.0,False,,349.4415983762992,[],"[800, 450]",ColorTask,98.0,76.0,,,HRV,HRV_0145,2022-11-30 18:16:42
,wl-rdm,193,525569,0.0-8.76-0.76,1.0,194.0,,,,,,,[],,,,,,62.5,1.0,i,1.0,True,700.0,43.0,60.0,40.0,False,,202.91172239117145,[],"[800, 450]",ColorTask,99.0,77.0,,,HRV,HRV_0145,2022-11-30 18:16:42
,wl-rdm,194,527502,0.0-8.77-0.77,1.0,195.0,,,,,,,[],,,,,,73.6,0.0,i,1.0,False,470.40000000596046,29.0,60.0,40.0,False,,399.6745326784572,[],"[800, 450]",ColorTask,98.0,78.0,,,HRV,HRV_0145,2022-11-30 18:16:42
,wl-rdm,195,530368,0.0-8.78-0.78,1.0,196.0,,,,,,,[],,,,,,53.2,1.0,i,1.0,True,1568.5999999940395,95.0,60.0,40.0,False,,211.34648736429236,[],"[800, 450]",ColorTask,99.0,79.0,,,HRV,HRV_0145,2022-11-30 18:16:42
,wl-rdm,196,532385,0.0-8.79-0.79,1.0,197.0,,,,,,,[],,,,,,87.9,1.0,i,1.0,True,566.5999999940395,34.0,60.0,40.0,False,,368.4494558486275,[],"[800, 450]",ColorTask,100.0,80.0,,,HRV,HRV_0145,2022-11-30 18:16:42
,wl-rdm,197,534319,0.0-8.80-0.80,1.0,198.0,,,,,,,[],,,,,,87.9,0.0,u,0.0,True,618.2999999970198,38.0,60.0,40.0,False,,233.59912248139176,[],"[800, 450]",ColorTask,101.0,81.0,,,HRV,HRV_0145,2022-11-30 18:16:42
,wl-rdm,198,537135,0.0-8.81-0.81,1.0,199.0,,,,,,,[],,,,,,50.0,0.0,i,1.0,False,1459.6000000089407,88.0,60.0,40.0,False,,280.88843645571524,[],"[800, 450]",ColorTask,100.0,82.0,,,HRV,HRV_0145,2022-11-30 18:16:42
,wl-rdm,199,539586,0.0-8.82-0.82,1.0,200.0,,,,,,,[],,,,,,50.0,1.0,u,0.0,False,1174.8999999910593,71.0,60.0,40.0,False,,201.83359009555,[],"[800, 450]",ColorTask,99.0,83.0,,,HRV,HRV_0145,2022-11-30 18:16:42
,wl-rdm,200,542068,0.0-8.83-0.83,1.0,201.0,,,,,,,[],,,,,,53.2,0.0,u,0.0,True,1120.5999999940395,68.0,60.0,40.0,False,,286.5253067596261,[],"[800, 450]",ColorTask,100.0,84.0,,,HRV,HRV_0145,2022-11-30 18:16:42
,wl-rdm,201,543918,0.0-8.84-0.84,1.0,202.0,,,,,,,[],,,,,,87.9,1.0,i,1.0,True,553.5,34.0,60.0,40.0,False,,204.42137387332804,[],"[800, 450]",ColorTask,101.0,85.0,,,HRV,HRV_0145,2022-11-30 18:16:42
,wl-rdm,202,545768,0.0-8.85-0.85,1.0,203.0,,,,,,,[],,,,,,87.9,0.0,u,0.0,True,551.2000000029802,34.0,60.0,40.0,False,,218.43033683881066,[],"[800, 450]",ColorTask,102.0,86.0,,,HRV,HRV_0145,2022-11-30 18:16:42
,wl-rdm,203,547968,0.0-8.86-0.86,1.0,204.0,,,,,,,[],,,,,,53.2,1.0,u,0.0,False,892.0000000149012,54.0,60.0,40.0,False,,240.079636365627,[],"[800, 450]",ColorTask,101.0,87.0,,,HRV,HRV_0145,2022-11-30 18:16:42
,wl-rdm,204,550252,0.0-8.87-0.87,1.0,205.0,,,,,,,[],,,,,,73.6,1.0,i,1.0,True,1005.0,61.0,60.0,40.0,False,,207.78651032749707,[],"[800, 450]",ColorTask,102.0,88.0,,,HRV,HRV_0145,2022-11-30 18:16:42
,wl-rdm,205,552202,0.0-8.88-0.88,1.0,206.0,,,,,,,[],,,,,,73.6,1.0,i,1.0,True,524.5,32.0,60.0,40.0,False,,359.61749812439916,[],"[800, 450]",ColorTask,103.0,89.0,,,HRV,HRV_0145,2022-11-30 18:16:42
,wl-rdm,206,554118,0.0-8.89-0.89,1.0,207.0,,,,,,,[],,,,,,73.6,1.0,i,1.0,True,501.3999999910593,31.0,60.0,40.0,False,,337.4137661011607,[],"[800, 450]",ColorTask,104.0,90.0,,,HRV,HRV_0145,2022-11-30 18:16:42
,wl-rdm,207,556302,0.0-8.90-0.90,1.0,208.0,,,,,,,[],,,,,,50.0,0.0,i,1.0,False,860.2999999970198,52.0,60.0,40.0,False,,263.77643880145763,[],"[800, 450]",ColorTask,103.0,91.0,,,HRV,HRV_0145,2022-11-30 18:16:42
,wl-rdm,208,558169,0.0-8.91-0.91,1.0,209.0,,,,,,,[],,,,,,87.9,0.0,u,0.0,True,550.8999999910593,34.0,60.0,40.0,False,,217.13995049165908,[],"[800, 450]",ColorTask,104.0,92.0,,,HRV,HRV_0145,2022-11-30 18:16:42
,wl-rdm,209,560468,0.0-8.92-0.92,1.0,210.0,,,,,,,[],,,,,,53.2,1.0,u,0.0,False,954.2999999970198,58.0,60.0,40.0,False,,257.08682643752365,[],"[800, 450]",ColorTask,103.0,93.0,,,HRV,HRV_0145,2022-11-30 18:16:42
,wl-rdm,210,562852,0.0-8.93-0.93,1.0,211.0,,,,,,,[],,,,,,73.6,0.0,u,0.0,True,1054.199999988079,64.0,60.0,40.0,False,,257.96412799724004,[],"[800, 450]",ColorTask,104.0,94.0,,,HRV,HRV_0145,2022-11-30 18:16:42
,wl-rdm,211,564802,0.0-8.94-0.94,1.0,212.0,,,,,,,[],,,,,,73.6,1.0,i,1.0,True,591.3000000119209,36.0,60.0,40.0,False,,291.0877439284729,[],"[800, 450]",ColorTask,105.0,95.0,,,HRV,HRV_0145,2022-11-30 18:16:42
,wl-rdm,212,566852,0.0-8.95-0.95,1.0,213.0,,,,,,,[],,,,,,73.6,0.0,u,0.0,True,597.3999999910593,36.0,60.0,40.0,False,,379.0362777877623,[],"[800, 450]",ColorTask,106.0,96.0,,,HRV,HRV_0145,2022-11-30 18:16:42
,wl-rdm,213,568751,0.0-8.96-0.96,1.0,214.0,,,,,,,[],,,,,,62.5,0.0,u,0.0,True,508.5,31.0,60.0,40.0,False,,326.7143461917385,[],"[800, 450]",ColorTask,107.0,97.0,,,HRV,HRV_0145,2022-11-30 18:16:42
,wl-rdm,214,570635,0.0-8.97-0.97,1.0,215.0,,,,,,,[],,,,,,87.9,1.0,i,1.0,True,547.2000000178814,33.0,60.0,40.0,False,,254.8383329508019,[],"[800, 450]",ColorTask,108.0,98.0,,,HRV,HRV_0145,2022-11-30 18:16:42
,wl-rdm,215,572635,0.0-8.98-0.98,1.0,216.0,,,,,,,[],,,,,,56.4,1.0,i,1.0,True,557.5999999940395,34.0,60.0,40.0,False,,360.37226090176705,[],"[800, 450]",ColorTask,109.0,99.0,,,HRV,HRV_0145,2022-11-30 18:16:42
,wl-rdm,216,574401,0.0-8.99-0.99,1.0,217.0,,,,,,,[],,,,,,87.9,0.0,u,0.0,True,465.1000000089407,28.0,60.0,40.0,False,,235.79755191530353,[],"[800, 450]",ColorTask,110.0,100.0,,,HRV,HRV_0145,2022-11-30 18:16:42
,wl-rdm,217,576251,0.0-8.100-0.100,1.0,218.0,,,,,,,[],,,,,,87.9,1.0,i,1.0,True,546.0999999940395,33.0,60.0,40.0,False,,232.59866052475925,[],"[800, 450]",ColorTask,111.0,101.0,,,HRV,HRV_0145,2022-11-30 18:16:42
,wl-rdm,218,578802,0.0-8.101-0.101,1.0,219.0,,,,,,,[],,,,,,62.5,0.0,i,1.0,False,1132.2000000029802,68.0,60.0,40.0,False,,361.125193681763,[],"[800, 450]",ColorTask,110.0,102.0,,,HRV,HRV_0145,2022-11-30 18:16:42
,wl-rdm,219,580834,0.0-8.102-0.102,1.0,220.0,,,,,,,[],,,,,,53.2,1.0,i,1.0,True,672.7999999970198,41.0,60.0,40.0,False,,293.600447747424,[],"[800, 450]",ColorTask,111.0,103.0,,,HRV,HRV_0145,2022-11-30 18:16:42
,wl-rdm,220,582735,0.0-8.103-0.103,1.0,221.0,,,,,,,[],,,,,,56.4,1.0,i,1.0,True,543.4000000059605,33.0,60.0,40.0,False,,294.45798913542717,[],"[800, 450]",ColorTask,112.0,104.0,,,HRV,HRV_0145,2022-11-30 18:16:42
,wl-rdm,221,585518,0.0-8.104-0.104,1.0,222.0,,,,,,,[],,,,,,53.2,0.0,i,1.0,False,1327.7999999970198,80.0,60.0,40.0,False,,367.53373280236815,[],"[800, 450]",ColorTask,111.0,105.0,,,HRV,HRV_0145,2022-11-30 18:16:42
,wl-rdm,222,587418,0.0-8.105-0.105,1.0,223.0,,,,,,,[],,,,,,62.5,1.0,i,1.0,True,515.8999999910593,31.0,60.0,40.0,False,,315.66659469138807,[],"[800, 450]",ColorTask,112.0,106.0,,,HRV,HRV_0145,2022-11-30 18:16:42
,wl-rdm,223,589351,0.0-8.106-0.106,1.0,224.0,,,,,,,[],,,,,,73.6,0.0,u,0.0,True,542.1000000089407,33.0,60.0,40.0,False,,317.3820691226855,[],"[800, 450]",ColorTask,113.0,107.0,,,HRV,HRV_0145,2022-11-30 18:16:42
,wl-rdm,224,591218,0.0-8.107-0.107,1.0,225.0,,,,,,,[],,,,,,73.6,0.0,u,0.0,True,540.0,33.0,60.0,40.0,False,,240.57623922997786,[],"[800, 450]",ColorTask,114.0,108.0,,,HRV,HRV_0145,2022-11-30 18:16:42
,wl-html-button-response,225,594708,0.0-9.0-0.0,,,,,,,,,,3487.699999988079,,0,,,,,,,,,,,,,,,,,,,,<h3>End of this session. Thank you!</h3><br>,['Close window'],HRV,HRV_0145,2022-11-30 18:16:42
