trialN,stimuli,question,trialStartTime,trialStartTime_UNIX,stimulus1,trialEvents,rt,receivedResponse,rating,trialEndTime,trialDuration,stimulus1Loaded,exp,subjectId,date
0,"[{'imgObject': {}, 'id': 'strawberries', 'src': '/static/foodstim60/strawberries.jpg', 'key': 'NaN', 'origWidth': 410, 'origHeight': 410, 'width': 410, 'height': 410, 'widthPercent': 0.8, 'rescaleHeight': True, 'trialN': 0, 'loaded': True, 'loadedTime': 2070.7000000029802, 'positionName': 'CENTER', 'positionCoords': [595, 245]}]",Rate how much you want to eat this food from 0 (least) to 10 (most).,2126.6000000089407,1669831153189,strawberries,"[{'event': 'fullscreenchange', 'details': 'fullscreenexit', 'performance time': 2170.800000011921, 'date time': 1669831153233}]",1823.5,True,7.86,3950.1000000089407,1823.5,True,HRV,HRV_0145,2022-11-30 18:00:47
1,"[{'imgObject': {}, 'id': 'bagel plain', 'src': '/static/foodstim60/bagel plain.jpg', 'key': 'NaN', 'origWidth': 410, 'origHeight': 410, 'width': 410, 'height': 410, 'widthPercent': 0.8, 'rescaleHeight': True, 'trialN': 1, 'loaded': True, 'loadedTime': 3953, 'positionName': 'CENTER', 'positionCoords': [595, 189.5]}]",Rate how much you want to eat this food from 0 (least) to 10 (most).,3951.300000011921,1669831155013,bagel plain,,1455.3999999910593,True,5.0,5406.70000000298,1455.3999999910593,True,HRV,HRV_0145,2022-11-30 18:00:47
2,"[{'imgObject': {}, 'id': 'turkey sandwich', 'src': '/static/foodstim60/turkey sandwich.jpg', 'key': 'NaN', 'origWidth': 409, 'origHeight': 409, 'width': 409, 'height': 409, 'widthPercent': 0.8, 'rescaleHeight': True, 'trialN': 2, 'loaded': True, 'loadedTime': 5410, 'positionName': 'CENTER', 'positionCoords': [595.5, 190]}]",Rate how much you want to eat this food from 0 (least) to 10 (most).,5407.600000008941,1669831156470,turkey sandwich,,1102.7000000029802,True,8.02,6510.300000011921,1102.7000000029802,True,HRV,HRV_0145,2022-11-30 18:00:47
3,"[{'imgObject': {}, 'id': 'popsicles', 'src': '/static/foodstim60/popsicles.jpg', 'key': 'NaN', 'origWidth': 410, 'origHeight': 410, 'width': 410, 'height': 410, 'widthPercent': 0.8, 'rescaleHeight': True, 'trialN': 3, 'loaded': True, 'loadedTime': 6513.600000008941, 'positionName': 'CENTER', 'positionCoords': [595, 189.5]}]",Rate how much you want to eat this food from 0 (least) to 10 (most).,6511.20000000298,1669831157573,popsicles,,911.6000000089407,True,6.5200000000000005,7422.800000011921,911.6000000089407,True,HRV,HRV_0145,2022-11-30 18:00:47
4,"[{'imgObject': {}, 'id': 'sushi w_condiments', 'src': '/static/foodstim60/sushi w_condiments.jpg', 'key': 'NaN', 'origWidth': 410, 'origHeight': 410, 'width': 410, 'height': 410, 'widthPercent': 0.8, 'rescaleHeight': True, 'trialN': 4, 'loaded': True, 'loadedTime': 7426.100000008941, 'positionName': 'CENTER', 'positionCoords': [595, 189.5]}]",Rate how much you want to eat this food from 0 (least) to 10 (most).,7423.70000000298,1669831158486,sushi w_condiments,,1494.5,True,0.0,8918.20000000298,1494.5,True,HRV,HRV_0145,2022-11-30 18:00:47
5,"[{'imgObject': {}, 'id': 'corn cob', 'src': '/static/foodstim60/corn cob.jpg', 'key': 'NaN', 'origWidth': 411, 'origHeight': 411, 'width': 411, 'height': 411, 'widthPercent': 0.8, 'rescaleHeight': True, 'trialN': 5, 'loaded': True, 'loadedTime': 8921.20000000298, 'positionName': 'CENTER', 'positionCoords': [594.5, 189]}]",Rate how much you want to eat this food from 0 (least) to 10 (most).,8919.300000011921,1669831159981,corn cob,,1463.5999999940395,True,4.67,10382.90000000596,1463.5999999940395,True,HRV,HRV_0145,2022-11-30 18:00:47
6,"[{'imgObject': {}, 'id': 'olives', 'src': '/static/foodstim60/olives.jpg', 'key': 'NaN', 'origWidth': 410, 'origHeight': 410, 'width': 410, 'height': 410, 'widthPercent': 0.8, 'rescaleHeight': True, 'trialN': 6, 'loaded': True, 'loadedTime': 10385.800000011921, 'positionName': 'CENTER', 'positionCoords': [595, 189.5]}]",Rate how much you want to eat this food from 0 (least) to 10 (most).,10384.0,1669831161446,olives,,1414.4000000059605,True,0.07,11798.40000000596,1414.4000000059605,True,HRV,HRV_0145,2022-11-30 18:00:47
7,"[{'imgObject': {}, 'id': 'orange slices', 'src': '/static/foodstim60/orange slices.jpg', 'key': 'NaN', 'origWidth': 409, 'origHeight': 410, 'width': 409, 'height': 410, 'widthPercent': 0.8, 'rescaleHeight': True, 'trialN': 7, 'loaded': True, 'loadedTime': 11801.90000000596, 'positionName': 'CENTER', 'positionCoords': [595.5, 189.5]}]",Rate how much you want to eat this food from 0 (least) to 10 (most).,11799.5,1669831162862,orange slices,,1047.4000000059605,True,6.3500000000000005,12846.90000000596,1047.4000000059605,True,HRV,HRV_0145,2022-11-30 18:00:47
8,"[{'imgObject': {}, 'id': 'seaweed', 'src': '/static/foodstim60/seaweed.jpg', 'key': 'NaN', 'origWidth': 410, 'origHeight': 410, 'width': 410, 'height': 410, 'widthPercent': 0.8, 'rescaleHeight': True, 'trialN': 8, 'loaded': True, 'loadedTime': 12850.300000011921, 'positionName': 'CENTER', 'positionCoords': [595, 189.5]}]",Rate how much you want to eat this food from 0 (least) to 10 (most).,12847.800000011921,1669831163910,seaweed,,1622.5,True,0.0,14470.300000011921,1622.5,True,HRV,HRV_0145,2022-11-30 18:00:47
9,"[{'imgObject': {}, 'id': 'cantaloupe', 'src': '/static/foodstim60/cantaloupe.jpg', 'key': 'NaN', 'origWidth': 409, 'origHeight': 409, 'width': 409, 'height': 409, 'widthPercent': 0.8, 'rescaleHeight': True, 'trialN': 9, 'loaded': True, 'loadedTime': 14473.90000000596, 'positionName': 'CENTER', 'positionCoords': [595.5, 190]}]",Rate how much you want to eat this food from 0 (least) to 10 (most).,14471.300000011921,1669831165533,cantaloupe,,1751.5,True,7.01,16222.800000011921,1751.5,True,HRV,HRV_0145,2022-11-30 18:00:47
10,"[{'imgObject': {}, 'id': 'salad w chicken', 'src': '/static/foodstim60/salad w chicken.jpg', 'key': 'NaN', 'origWidth': 411, 'origHeight': 411, 'width': 411, 'height': 411, 'widthPercent': 0.8, 'rescaleHeight': True, 'trialN': 10, 'loaded': True, 'loadedTime': 16226.300000011921, 'positionName': 'CENTER', 'positionCoords': [594.5, 189]}]",Rate how much you want to eat this food from 0 (least) to 10 (most).,16223.800000011921,1669831167286,salad w chicken,,2063.0,True,9.21,18286.80000001192,2063.0,True,HRV,HRV_0145,2022-11-30 18:00:47
11,"[{'imgObject': {}, 'id': 'mashed potato', 'src': '/static/foodstim60/mashed potato.jpg', 'key': 'NaN', 'origWidth': 409, 'origHeight': 409, 'width': 409, 'height': 409, 'widthPercent': 0.8, 'rescaleHeight': True, 'trialN': 11, 'loaded': True, 'loadedTime': 18290.5, 'positionName': 'CENTER', 'positionCoords': [595.5, 190]}]",Rate how much you want to eat this food from 0 (least) to 10 (most).,18287.90000000596,1669831169350,mashed potato,,1366.4000000059605,True,4.86,19654.30000001192,1366.4000000059605,True,HRV,HRV_0145,2022-11-30 18:00:47
12,"[{'imgObject': {}, 'id': 'turkeysandwich', 'src': '/static/foodstim60/turkeysandwich.jpg', 'key': 'NaN', 'origWidth': 409, 'origHeight': 409, 'width': 409, 'height': 409, 'widthPercent': 0.8, 'rescaleHeight': True, 'trialN': 12, 'loaded': True, 'loadedTime': 19657.60000000894, 'positionName': 'CENTER', 'positionCoords': [595.5, 190]}]",Rate how much you want to eat this food from 0 (least) to 10 (most).,19655.30000001192,1669831170717,turkeysandwich,,911.3999999910593,True,7.22,20566.70000000298,911.3999999910593,True,HRV,HRV_0145,2022-11-30 18:00:47
13,"[{'imgObject': {}, 'id': 'chicken nuggets2', 'src': '/static/foodstim60/chicken nuggets2.jpg', 'key': 'NaN', 'origWidth': 410, 'origHeight': 409, 'width': 410, 'height': 409, 'widthPercent': 0.8, 'rescaleHeight': True, 'trialN': 13, 'loaded': True, 'loadedTime': 20570, 'positionName': 'CENTER', 'positionCoords': [595, 190]}]",Rate how much you want to eat this food from 0 (least) to 10 (most).,20567.70000000298,1669831171630,chicken nuggets2,,1087.1000000089407,True,8.57,21654.80000001192,1087.1000000089407,True,HRV,HRV_0145,2022-11-30 18:00:47
14,"[{'imgObject': {}, 'id': 'raspberries', 'src': '/static/foodstim60/raspberries.jpg', 'key': 'NaN', 'origWidth': 411, 'origHeight': 411, 'width': 411, 'height': 411, 'widthPercent': 0.8, 'rescaleHeight': True, 'trialN': 14, 'loaded': True, 'loadedTime': 21658.60000000894, 'positionName': 'CENTER', 'positionCoords': [594.5, 189]}]",Rate how much you want to eat this food from 0 (least) to 10 (most).,21655.80000001192,1669831172718,raspberries,,966.6999999880791,True,6.42,22622.5,966.6999999880791,True,HRV,HRV_0145,2022-11-30 18:00:47
15,"[{'imgObject': {}, 'id': 'fried eggs', 'src': '/static/foodstim60/fried eggs.jpg', 'key': 'NaN', 'origWidth': 410, 'origHeight': 410, 'width': 410, 'height': 410, 'widthPercent': 0.8, 'rescaleHeight': True, 'trialN': 15, 'loaded': True, 'loadedTime': 22626.10000000894, 'positionName': 'CENTER', 'positionCoords': [595, 189.5]}]",Rate how much you want to eat this food from 0 (least) to 10 (most).,22623.5,1669831173686,fried eggs,,1479.2000000029802,True,5.12,24102.70000000298,1479.2000000029802,True,HRV,HRV_0145,2022-11-30 18:00:47
16,"[{'imgObject': {}, 'id': 'salmon', 'src': '/static/foodstim60/salmon.jpg', 'key': 'NaN', 'origWidth': 410, 'origHeight': 409, 'width': 410, 'height': 409, 'widthPercent': 0.8, 'rescaleHeight': True, 'trialN': 16, 'loaded': True, 'loadedTime': 24106.40000000596, 'positionName': 'CENTER', 'positionCoords': [595, 190]}]",Rate how much you want to eat this food from 0 (least) to 10 (most).,24103.80000001192,1669831175166,salmon,,1374.8999999910593,True,0.13,25478.70000000298,1374.8999999910593,True,HRV,HRV_0145,2022-11-30 18:00:47
17,"[{'imgObject': {}, 'id': 'hashbrowns', 'src': '/static/foodstim60/hashbrowns.jpg', 'key': 'NaN', 'origWidth': 411, 'origHeight': 410, 'width': 411, 'height': 410, 'widthPercent': 0.8, 'rescaleHeight': True, 'trialN': 17, 'loaded': True, 'loadedTime': 25482.20000000298, 'positionName': 'CENTER', 'positionCoords': [594.5, 189.5]}]",Rate how much you want to eat this food from 0 (least) to 10 (most).,25479.70000000298,1669831176542,hashbrowns,,1439.1000000089407,True,4.46,26918.80000001192,1439.1000000089407,True,HRV,HRV_0145,2022-11-30 18:00:47
18,"[{'imgObject': {}, 'id': 'kiwi', 'src': '/static/foodstim60/kiwi.jpg', 'key': 'NaN', 'origWidth': 410, 'origHeight': 410, 'width': 410, 'height': 410, 'widthPercent': 0.8, 'rescaleHeight': True, 'trialN': 18, 'loaded': True, 'loadedTime': 26922.30000001192, 'positionName': 'CENTER', 'positionCoords': [595, 189.5]}]",Rate how much you want to eat this food from 0 (least) to 10 (most).,26919.80000001192,1669831177982,kiwi,,887.0,True,6.58,27806.80000001192,887.0,True,HRV,HRV_0145,2022-11-30 18:00:47
19,"[{'imgObject': {}, 'id': 'roastedpotatoes', 'src': '/static/foodstim60/roastedpotatoes.jpg', 'key': 'NaN', 'origWidth': 409, 'origHeight': 410, 'width': 409, 'height': 410, 'widthPercent': 0.8, 'rescaleHeight': True, 'trialN': 19, 'loaded': True, 'loadedTime': 27810.40000000596, 'positionName': 'CENTER', 'positionCoords': [595.5, 189.5]}]",Rate how much you want to eat this food from 0 (least) to 10 (most).,27807.90000000596,1669831178870,roastedpotatoes,,1334.2999999970198,True,5.57,29142.20000000298,1334.2999999970198,True,HRV,HRV_0145,2022-11-30 18:00:47
20,"[{'imgObject': {}, 'id': 'avocado', 'src': '/static/foodstim60/avocado.jpg', 'key': 'NaN', 'origWidth': 409, 'origHeight': 409, 'width': 409, 'height': 409, 'widthPercent': 0.8, 'rescaleHeight': True, 'trialN': 20, 'loaded': True, 'loadedTime': 29145.90000000596, 'positionName': 'CENTER', 'positionCoords': [595.5, 190]}]",Rate how much you want to eat this food from 0 (least) to 10 (most).,29143.5,1669831180206,avocado,,1855.300000011921,True,0.42,30998.80000001192,1855.300000011921,True,HRV,HRV_0145,2022-11-30 18:00:47
21,"[{'imgObject': {}, 'id': 'rigatoni and sauce', 'src': '/static/foodstim60/rigatoni and sauce.jpg', 'key': 'NaN', 'origWidth': 410, 'origHeight': 411, 'width': 410, 'height': 411, 'widthPercent': 0.8, 'rescaleHeight': True, 'trialN': 21, 'loaded': True, 'loadedTime': 31002.5, 'positionName': 'CENTER', 'positionCoords': [595, 189]}]",Rate how much you want to eat this food from 0 (least) to 10 (most).,30999.90000000596,1669831182062,rigatoni and sauce,,1343.0,True,7.91,32342.90000000596,1343.0,True,HRV,HRV_0145,2022-11-30 18:00:47
22,"[{'imgObject': {}, 'id': 'chickenfingers', 'src': '/static/foodstim60/chickenfingers.jpg', 'key': 'NaN', 'origWidth': 410, 'origHeight': 410, 'width': 410, 'height': 410, 'widthPercent': 0.8, 'rescaleHeight': True, 'trialN': 22, 'loaded': True, 'loadedTime': 32346.5, 'positionName': 'CENTER', 'positionCoords': [595, 189.5]}]",Rate how much you want to eat this food from 0 (least) to 10 (most).,32344.0,1669831183406,chickenfingers,,1502.800000011921,True,8.72,33846.80000001192,1502.800000011921,True,HRV,HRV_0145,2022-11-30 18:00:47
23,"[{'imgObject': {}, 'id': 'eggsalad', 'src': '/static/foodstim60/eggsalad.jpg', 'key': 'NaN', 'origWidth': 410, 'origHeight': 409, 'width': 410, 'height': 409, 'widthPercent': 0.8, 'rescaleHeight': True, 'trialN': 23, 'loaded': True, 'loadedTime': 33850.60000000894, 'positionName': 'CENTER', 'positionCoords': [595, 190]}]",Rate how much you want to eat this food from 0 (least) to 10 (most).,33848.0,1669831184910,eggsalad,,1846.800000011921,True,0.12,35694.80000001192,1846.800000011921,True,HRV,HRV_0145,2022-11-30 18:00:47
24,"[{'imgObject': {}, 'id': 'mac & cheese', 'src': '/static/foodstim60/mac & cheese.jpg', 'key': 'NaN', 'origWidth': 410, 'origHeight': 410, 'width': 410, 'height': 410, 'widthPercent': 0.8, 'rescaleHeight': True, 'trialN': 24, 'loaded': True, 'loadedTime': 35698.70000000298, 'positionName': 'CENTER', 'positionCoords': [595, 189.5]}]",Rate how much you want to eat this food from 0 (least) to 10 (most).,35696.10000000894,1669831186758,mac & cheese,,1310.0999999940395,True,4.66,37006.20000000298,1310.0999999940395,True,HRV,HRV_0145,2022-11-30 18:00:47
25,"[{'imgObject': {}, 'id': 'cherries', 'src': '/static/foodstim60/cherries.jpg', 'key': 'NaN', 'origWidth': 410, 'origHeight': 411, 'width': 410, 'height': 411, 'widthPercent': 0.8, 'rescaleHeight': True, 'trialN': 25, 'loaded': True, 'loadedTime': 37009.10000000894, 'positionName': 'CENTER', 'positionCoords': [595, 189]}]",Rate how much you want to eat this food from 0 (least) to 10 (most).,37007.20000000298,1669831188069,cherries,,1142.9000000059605,True,7.2,38150.10000000894,1142.9000000059605,True,HRV,HRV_0145,2022-11-30 18:00:47
26,"[{'imgObject': {}, 'id': 'ice cream sundae 002', 'src': '/static/foodstim60/ice cream sundae 002.jpg', 'key': 'NaN', 'origWidth': 409, 'origHeight': 409, 'width': 409, 'height': 409, 'widthPercent': 0.8, 'rescaleHeight': True, 'trialN': 26, 'loaded': True, 'loadedTime': 38153.80000001192, 'positionName': 'CENTER', 'positionCoords': [595.5, 190]}]",Rate how much you want to eat this food from 0 (least) to 10 (most).,38151.30000001192,1669831189213,ice cream sundae 002,,1294.8999999910593,True,7.45,39446.20000000298,1294.8999999910593,True,HRV,HRV_0145,2022-11-30 18:00:47
27,"[{'imgObject': {}, 'id': 'apple slices', 'src': '/static/foodstim60/apple slices.jpg', 'key': 'NaN', 'origWidth': 409, 'origHeight': 410, 'width': 409, 'height': 410, 'widthPercent': 0.8, 'rescaleHeight': True, 'trialN': 27, 'loaded': True, 'loadedTime': 39449.40000000596, 'positionName': 'CENTER', 'positionCoords': [595.5, 189.5]}]",Rate how much you want to eat this food from 0 (least) to 10 (most).,39447.10000000894,1669831190509,apple slices,,1423.0999999940395,True,7.03,40870.20000000298,1423.0999999940395,True,HRV,HRV_0145,2022-11-30 18:00:47
28,"[{'imgObject': {}, 'id': 'tacos', 'src': '/static/foodstim60/tacos.jpg', 'key': 'NaN', 'origWidth': 411, 'origHeight': 411, 'width': 411, 'height': 411, 'widthPercent': 0.8, 'rescaleHeight': True, 'trialN': 28, 'loaded': True, 'loadedTime': 40873.60000000894, 'positionName': 'CENTER', 'positionCoords': [594.5, 189]}]",Rate how much you want to eat this food from 0 (least) to 10 (most).,40871.20000000298,1669831191933,tacos,,1183.2000000029802,True,8.36,42054.40000000596,1183.2000000029802,True,HRV,HRV_0145,2022-11-30 18:00:47
29,"[{'imgObject': {}, 'id': 'pear', 'src': '/static/foodstim60/pear.jpg', 'key': 'NaN', 'origWidth': 411, 'origHeight': 410, 'width': 411, 'height': 410, 'widthPercent': 0.8, 'rescaleHeight': True, 'trialN': 29, 'loaded': True, 'loadedTime': 42057.40000000596, 'positionName': 'CENTER', 'positionCoords': [594.5, 189.5]}]",Rate how much you want to eat this food from 0 (least) to 10 (most).,42055.60000000894,1669831193118,pear,,967.2000000029802,True,7.17,43022.80000001192,967.2000000029802,True,HRV,HRV_0145,2022-11-30 18:00:47
30,"[{'imgObject': {}, 'id': 'raisin bran w milk', 'src': '/static/foodstim60/raisin bran w milk.jpg', 'key': 'NaN', 'origWidth': 411, 'origHeight': 411, 'width': 411, 'height': 411, 'widthPercent': 0.8, 'rescaleHeight': True, 'trialN': 30, 'loaded': True, 'loadedTime': 43026.5, 'positionName': 'CENTER', 'positionCoords': [594.5, 189]}]",Rate how much you want to eat this food from 0 (least) to 10 (most).,43023.90000000596,1669831194086,raisin bran w milk,,1782.2000000029802,True,4.53,44806.10000000894,1782.2000000029802,True,HRV,HRV_0145,2022-11-30 18:00:47
31,"[{'imgObject': {}, 'id': 'sweetpotato', 'src': '/static/foodstim60/sweetpotato.jpg', 'key': 'NaN', 'origWidth': 410, 'origHeight': 410, 'width': 410, 'height': 410, 'widthPercent': 0.8, 'rescaleHeight': True, 'trialN': 31, 'loaded': True, 'loadedTime': 44809.70000000298, 'positionName': 'CENTER', 'positionCoords': [595, 189.5]}]",Rate how much you want to eat this food from 0 (least) to 10 (most).,44807.30000001192,1669831195869,sweetpotato,,2255.199999988079,True,1.6500000000000001,47062.5,2255.199999988079,True,HRV,HRV_0145,2022-11-30 18:00:47
32,"[{'imgObject': {}, 'id': 'bagel and cc', 'src': '/static/foodstim60/bagel and cc.jpg', 'key': 'NaN', 'origWidth': 410, 'origHeight': 410, 'width': 410, 'height': 410, 'widthPercent': 0.8, 'rescaleHeight': True, 'trialN': 32, 'loaded': True, 'loadedTime': 47066, 'positionName': 'CENTER', 'positionCoords': [595, 189.5]}]",Rate how much you want to eat this food from 0 (least) to 10 (most).,47063.60000000894,1669831198126,bagel and cc,,2126.7000000029802,True,5.05,49190.30000001192,2126.7000000029802,True,HRV,HRV_0145,2022-11-30 18:00:47
33,"[{'imgObject': {}, 'id': 'froot loops w milk', 'src': '/static/foodstim60/froot loops w milk.jpg', 'key': 'NaN', 'origWidth': 410, 'origHeight': 410, 'width': 410, 'height': 410, 'widthPercent': 0.8, 'rescaleHeight': True, 'trialN': 33, 'loaded': True, 'loadedTime': 49193.10000000894, 'positionName': 'CENTER', 'positionCoords': [595, 189.5]}]",Rate how much you want to eat this food from 0 (least) to 10 (most).,49191.30000001192,1669831200253,froot loops w milk,,1230.8999999910593,True,5.83,50422.20000000298,1230.8999999910593,True,HRV,HRV_0145,2022-11-30 18:00:47
34,"[{'imgObject': {}, 'id': 'luckycharms', 'src': '/static/foodstim60/luckycharms.jpg', 'key': 'NaN', 'origWidth': 410, 'origHeight': 409, 'width': 410, 'height': 409, 'widthPercent': 0.8, 'rescaleHeight': True, 'trialN': 34, 'loaded': True, 'loadedTime': 50426, 'positionName': 'CENTER', 'positionCoords': [595, 190]}]",Rate how much you want to eat this food from 0 (least) to 10 (most).,50423.40000000596,1669831201485,luckycharms,,1199.4000000059605,True,6.91,51622.80000001192,1199.4000000059605,True,HRV,HRV_0145,2022-11-30 18:00:47
35,"[{'imgObject': {}, 'id': 'eggs', 'src': '/static/foodstim60/eggs.jpg', 'key': 'NaN', 'origWidth': 409, 'origHeight': 409, 'width': 409, 'height': 409, 'widthPercent': 0.8, 'rescaleHeight': True, 'trialN': 35, 'loaded': True, 'loadedTime': 51626.40000000596, 'positionName': 'CENTER', 'positionCoords': [595.5, 190]}]",Rate how much you want to eat this food from 0 (least) to 10 (most).,51623.90000000596,1669831202686,eggs,,1486.2999999970198,True,0.12,53110.20000000298,1486.2999999970198,True,HRV,HRV_0145,2022-11-30 18:00:47
36,"[{'imgObject': {}, 'id': 'banana', 'src': '/static/foodstim60/banana.jpg', 'key': 'NaN', 'origWidth': 410, 'origHeight': 410, 'width': 410, 'height': 410, 'widthPercent': 0.8, 'rescaleHeight': True, 'trialN': 36, 'loaded': True, 'loadedTime': 53113.90000000596, 'positionName': 'CENTER', 'positionCoords': [595, 189.5]}]",Rate how much you want to eat this food from 0 (least) to 10 (most).,53111.30000001192,1669831204173,banana,,1166.8999999910593,True,5.58,54278.20000000298,1166.8999999910593,True,HRV,HRV_0145,2022-11-30 18:00:47
37,"[{'imgObject': {}, 'id': 'steak', 'src': '/static/foodstim60/steak.jpg', 'key': 'NaN', 'origWidth': 410, 'origHeight': 410, 'width': 410, 'height': 410, 'widthPercent': 0.8, 'rescaleHeight': True, 'trialN': 37, 'loaded': True, 'loadedTime': 54281.90000000596, 'positionName': 'CENTER', 'positionCoords': [595, 189.5]}]",Rate how much you want to eat this food from 0 (least) to 10 (most).,54279.40000000596,1669831205341,steak,,2223.4000000059605,True,8.57,56502.80000001192,2223.4000000059605,True,HRV,HRV_0145,2022-11-30 18:00:47
38,"[{'imgObject': {}, 'id': 'grilled chicken strips', 'src': '/static/foodstim60/grilled chicken strips.jpg', 'key': 'NaN', 'origWidth': 410, 'origHeight': 411, 'width': 410, 'height': 411, 'widthPercent': 0.8, 'rescaleHeight': True, 'trialN': 38, 'loaded': True, 'loadedTime': 56506.40000000596, 'positionName': 'CENTER', 'positionCoords': [595, 189]}]",Rate how much you want to eat this food from 0 (least) to 10 (most).,56504.0,1669831207566,grilled chicken strips,,1486.7000000029802,True,8.14,57990.70000000298,1486.7000000029802,True,HRV,HRV_0145,2022-11-30 18:00:47
39,"[{'imgObject': {}, 'id': 'veggieswithdip', 'src': '/static/foodstim60/veggieswithdip.jpg', 'key': 'NaN', 'origWidth': 409, 'origHeight': 409, 'width': 409, 'height': 409, 'widthPercent': 0.8, 'rescaleHeight': True, 'trialN': 39, 'loaded': True, 'loadedTime': 57994.60000000894, 'positionName': 'CENTER', 'positionCoords': [595.5, 190]}]",Rate how much you want to eat this food from 0 (least) to 10 (most).,57992.10000000894,1669831209054,veggieswithdip,,1960.5,True,4.08,59952.60000000894,1960.5,True,HRV,HRV_0145,2022-11-30 18:00:47
40,"[{'imgObject': {}, 'id': 'omelette', 'src': '/static/foodstim60/omelette.jpg', 'key': 'NaN', 'origWidth': 410, 'origHeight': 409, 'width': 410, 'height': 409, 'widthPercent': 0.8, 'rescaleHeight': True, 'trialN': 40, 'loaded': True, 'loadedTime': 59956.10000000894, 'positionName': 'CENTER', 'positionCoords': [595, 190]}]",Rate how much you want to eat this food from 0 (least) to 10 (most).,59954.0,1669831211016,omelette,,2052.1000000089407,True,4.98,62006.10000000894,2052.1000000089407,True,HRV,HRV_0145,2022-11-30 18:00:47
41,"[{'imgObject': {}, 'id': 'Grapes', 'src': '/static/foodstim60/Grapes.jpg', 'key': 'NaN', 'origWidth': 411, 'origHeight': 411, 'width': 411, 'height': 411, 'widthPercent': 0.8, 'rescaleHeight': True, 'trialN': 41, 'loaded': True, 'loadedTime': 62009.30000001192, 'positionName': 'CENTER', 'positionCoords': [594.5, 189]}]",Rate how much you want to eat this food from 0 (least) to 10 (most).,62007.10000000894,1669831213068,Grapes,,2015.7000000029802,True,7.07,64022.80000001192,2015.7000000029802,True,HRV,HRV_0145,2022-11-30 18:00:47
42,"[{'imgObject': {}, 'id': 'blackbeanswithrice', 'src': '/static/foodstim60/blackbeanswithrice.jpg', 'key': 'NaN', 'origWidth': 410, 'origHeight': 410, 'width': 410, 'height': 410, 'widthPercent': 0.8, 'rescaleHeight': True, 'trialN': 42, 'loaded': True, 'loadedTime': 64026.90000000596, 'positionName': 'CENTER', 'positionCoords': [595, 189.5]}]",Rate how much you want to eat this food from 0 (least) to 10 (most).,64024.10000000894,1669831215085,blackbeanswithrice,,1510.0999999940395,True,5.43,65534.20000000298,1510.0999999940395,True,HRV,HRV_0145,2022-11-30 18:00:47
43,"[{'imgObject': {}, 'id': 'mango', 'src': '/static/foodstim60/mango.jpg', 'key': 'NaN', 'origWidth': 411, 'origHeight': 411, 'width': 411, 'height': 411, 'widthPercent': 0.8, 'rescaleHeight': True, 'trialN': 43, 'loaded': True, 'loadedTime': 65538.30000001192, 'positionName': 'CENTER', 'positionCoords': [594.5, 189]}]",Rate how much you want to eat this food from 0 (least) to 10 (most).,65535.40000000596,1669831216597,mango,,1015.5,True,5.93,66550.90000000596,1015.5,True,HRV,HRV_0145,2022-11-30 18:00:47
44,"[{'imgObject': {}, 'id': 'lox', 'src': '/static/foodstim60/lox.jpg', 'key': 'NaN', 'origWidth': 410, 'origHeight': 411, 'width': 410, 'height': 411, 'widthPercent': 0.8, 'rescaleHeight': True, 'trialN': 44, 'loaded': True, 'loadedTime': 66554, 'positionName': 'CENTER', 'positionCoords': [595, 189]}]",Rate how much you want to eat this food from 0 (least) to 10 (most).,66551.70000000298,1669831217613,lox,,1678.7999999970198,True,0.08,68230.5,1678.7999999970198,True,HRV,HRV_0145,2022-11-30 18:00:47
45,"[{'imgObject': {}, 'id': 'cheerios', 'src': '/static/foodstim60/cheerios.jpg', 'key': 'NaN', 'origWidth': 409, 'origHeight': 410, 'width': 409, 'height': 410, 'widthPercent': 0.8, 'rescaleHeight': True, 'trialN': 45, 'loaded': True, 'loadedTime': 68233.60000000894, 'positionName': 'CENTER', 'positionCoords': [595.5, 189.5]}]",Rate how much you want to eat this food from 0 (least) to 10 (most).,68231.30000001192,1669831219293,cheerios,,1328.199999988079,True,3.86,69559.5,1328.199999988079,True,HRV,HRV_0145,2022-11-30 18:00:47
46,"[{'imgObject': {}, 'id': 'yogurt no spoon', 'src': '/static/foodstim60/yogurt no spoon.jpg', 'key': 'NaN', 'origWidth': 411, 'origHeight': 410, 'width': 411, 'height': 410, 'widthPercent': 0.8, 'rescaleHeight': True, 'trialN': 46, 'loaded': True, 'loadedTime': 69563, 'positionName': 'CENTER', 'positionCoords': [594.5, 189.5]}]",Rate how much you want to eat this food from 0 (least) to 10 (most).,69560.5,1669831220622,yogurt no spoon,,1285.6000000089407,True,7.1000000000000005,70846.10000000894,1285.6000000089407,True,HRV,HRV_0145,2022-11-30 18:00:47
47,"[{'imgObject': {}, 'id': 'granola w milk', 'src': '/static/foodstim60/granola w milk.jpg', 'key': 'NaN', 'origWidth': 410, 'origHeight': 410, 'width': 410, 'height': 410, 'widthPercent': 0.8, 'rescaleHeight': True, 'trialN': 47, 'loaded': True, 'loadedTime': 70848.70000000298, 'positionName': 'CENTER', 'positionCoords': [595, 189.5]}]",Rate how much you want to eat this food from 0 (least) to 10 (most).,70847.0,1669831221908,granola w milk,"[{'event': 'onblur', 'details': 'out of focus', 'performance time': 74113.70000000298, 'date time': 1669831225175}, {'event': 'onfocus', 'details': 'in focus', 'performance time': 74218.70000000298, 'date time': 1669831225280}]",4855.100000008941,True,4.73,75702.10000000894,4855.100000008941,True,HRV,HRV_0145,2022-11-30 18:00:47
48,"[{'imgObject': {}, 'id': 'hotdog w must', 'src': '/static/foodstim60/hotdog w must.jpg', 'key': 'NaN', 'origWidth': 409, 'origHeight': 409, 'width': 409, 'height': 409, 'widthPercent': 0.8, 'rescaleHeight': True, 'trialN': 48, 'loaded': True, 'loadedTime': 75705.20000000298, 'positionName': 'CENTER', 'positionCoords': [595.5, 190]}]",Rate how much you want to eat this food from 0 (least) to 10 (most).,75703.30000001192,1669831226765,hotdog w must,,1439.3999999910593,True,5.91,77142.70000000298,1439.3999999910593,True,HRV,HRV_0145,2022-11-30 18:00:47
49,"[{'imgObject': {}, 'id': 'fruitsalad', 'src': '/static/foodstim60/fruitsalad.jpg', 'key': 'NaN', 'origWidth': 410, 'origHeight': 410, 'width': 410, 'height': 410, 'widthPercent': 0.8, 'rescaleHeight': True, 'trialN': 49, 'loaded': True, 'loadedTime': 77146, 'positionName': 'CENTER', 'positionCoords': [595, 189.5]}]",Rate how much you want to eat this food from 0 (least) to 10 (most).,77143.80000001192,1669831228205,fruitsalad,,1286.699999988079,True,8.81,78430.5,1286.699999988079,True,HRV,HRV_0145,2022-11-30 18:00:47
50,"[{'imgObject': {}, 'id': 'burger', 'src': '/static/foodstim60/burger.jpg', 'key': 'NaN', 'origWidth': 409, 'origHeight': 409, 'width': 409, 'height': 409, 'widthPercent': 0.8, 'rescaleHeight': True, 'trialN': 50, 'loaded': True, 'loadedTime': 78434.20000000298, 'positionName': 'CENTER', 'positionCoords': [595.5, 190]}]",Rate how much you want to eat this food from 0 (least) to 10 (most).,78431.60000000894,1669831229493,burger,,1287.2999999970198,True,7.41,79718.90000000596,1287.2999999970198,True,HRV,HRV_0145,2022-11-30 18:00:47
51,"[{'imgObject': {}, 'id': 'blueberries', 'src': '/static/foodstim60/blueberries.jpg', 'key': 'NaN', 'origWidth': 411, 'origHeight': 411, 'width': 411, 'height': 411, 'widthPercent': 0.8, 'rescaleHeight': True, 'trialN': 51, 'loaded': True, 'loadedTime': 79722.30000001192, 'positionName': 'CENTER', 'positionCoords': [594.5, 189]}]",Rate how much you want to eat this food from 0 (least) to 10 (most).,79719.90000000596,1669831230781,blueberries,,4470.4000000059605,True,6.07,84190.30000001192,4470.4000000059605,True,HRV,HRV_0145,2022-11-30 18:00:47
52,"[{'imgObject': {}, 'id': 'shreddedwheatwithmilk', 'src': '/static/foodstim60/shreddedwheatwithmilk.jpg', 'key': 'NaN', 'origWidth': 410, 'origHeight': 410, 'width': 410, 'height': 410, 'widthPercent': 0.8, 'rescaleHeight': True, 'trialN': 52, 'loaded': True, 'loadedTime': 84193.90000000596, 'positionName': 'CENTER', 'positionCoords': [595, 189.5]}]",Rate how much you want to eat this food from 0 (least) to 10 (most).,84191.40000000596,1669831235253,shreddedwheatwithmilk,,1718.7999999970198,True,4.21,85910.20000000298,1718.7999999970198,True,HRV,HRV_0145,2022-11-30 18:00:47
53,"[{'imgObject': {}, 'id': 'cherry tomato', 'src': '/static/foodstim60/cherry tomato.jpg', 'key': 'NaN', 'origWidth': 410, 'origHeight': 410, 'width': 410, 'height': 410, 'widthPercent': 0.8, 'rescaleHeight': True, 'trialN': 53, 'loaded': True, 'loadedTime': 85913.60000000894, 'positionName': 'CENTER', 'positionCoords': [595, 189.5]}]",Rate how much you want to eat this food from 0 (least) to 10 (most).,85911.20000000298,1669831236973,cherry tomato,,1167.5,True,2.98,87078.70000000298,1167.5,True,HRV,HRV_0145,2022-11-30 18:00:47
54,"[{'imgObject': {}, 'id': 'Tribe humus pita', 'src': '/static/foodstim60/Tribe humus pita.jpg', 'key': 'NaN', 'origWidth': 411, 'origHeight': 411, 'width': 411, 'height': 411, 'widthPercent': 0.8, 'rescaleHeight': True, 'trialN': 54, 'loaded': True, 'loadedTime': 87082.30000001192, 'positionName': 'CENTER', 'positionCoords': [594.5, 189]}]",Rate how much you want to eat this food from 0 (least) to 10 (most).,87079.80000001192,1669831238141,Tribe humus pita,,1391.0999999940395,True,5.28,88470.90000000596,1391.0999999940395,True,HRV,HRV_0145,2022-11-30 18:00:47
55,"[{'imgObject': {}, 'id': 'cocktailshrimp', 'src': '/static/foodstim60/cocktailshrimp.jpg', 'key': 'NaN', 'origWidth': 410, 'origHeight': 410, 'width': 410, 'height': 410, 'widthPercent': 0.8, 'rescaleHeight': True, 'trialN': 55, 'loaded': True, 'loadedTime': 88474.30000001192, 'positionName': 'CENTER', 'positionCoords': [595, 189.5]}]",Rate how much you want to eat this food from 0 (least) to 10 (most).,88471.90000000596,1669831239533,cocktailshrimp,,2222.2999999970198,True,0.03,90694.20000000298,2222.2999999970198,True,HRV,HRV_0145,2022-11-30 18:00:47
56,"[{'imgObject': {}, 'id': 'rigatoni', 'src': '/static/foodstim60/rigatoni.jpg', 'key': 'NaN', 'origWidth': 411, 'origHeight': 411, 'width': 411, 'height': 411, 'widthPercent': 0.8, 'rescaleHeight': True, 'trialN': 56, 'loaded': True, 'loadedTime': 90697.30000001192, 'positionName': 'CENTER', 'positionCoords': [594.5, 189]}]",Rate how much you want to eat this food from 0 (least) to 10 (most).,90695.30000001192,1669831241757,rigatoni,,1943.5,True,5.48,92638.80000001192,1943.5,True,HRV,HRV_0145,2022-11-30 18:00:47
57,"[{'imgObject': {}, 'id': 'burrito', 'src': '/static/foodstim60/burrito.jpg', 'key': 'NaN', 'origWidth': 410, 'origHeight': 410, 'width': 410, 'height': 410, 'widthPercent': 0.8, 'rescaleHeight': True, 'trialN': 57, 'loaded': True, 'loadedTime': 92642.60000000894, 'positionName': 'CENTER', 'positionCoords': [595, 189.5]}]",Rate how much you want to eat this food from 0 (least) to 10 (most).,92639.90000000596,1669831243701,burrito,,1086.7000000029802,True,6.8,93726.60000000894,1086.7000000029802,True,HRV,HRV_0145,2022-11-30 18:00:47
58,"[{'imgObject': {}, 'id': 'edamame', 'src': '/static/foodstim60/edamame.jpg', 'key': 'NaN', 'origWidth': 409, 'origHeight': 410, 'width': 409, 'height': 410, 'widthPercent': 0.8, 'rescaleHeight': True, 'trialN': 58, 'loaded': True, 'loadedTime': 93730.40000000596, 'positionName': 'CENTER', 'positionCoords': [595.5, 189.5]}]",Rate how much you want to eat this food from 0 (least) to 10 (most).,93727.90000000596,1669831244789,edamame,,1598.5,True,3.63,95326.40000000596,1598.5,True,HRV,HRV_0145,2022-11-30 18:00:47
59,"[{'imgObject': {}, 'id': 'baked potato', 'src': '/static/foodstim60/baked potato.jpg', 'key': 'NaN', 'origWidth': 409, 'origHeight': 410, 'width': 409, 'height': 410, 'widthPercent': 0.8, 'rescaleHeight': True, 'trialN': 59, 'loaded': True, 'loadedTime': 95330.20000000298, 'positionName': 'CENTER', 'positionCoords': [595.5, 189.5]}]",Rate how much you want to eat this food from 0 (least) to 10 (most).,95327.60000000894,1669831246389,baked potato,,934.7999999970198,True,4.8500000000000005,96262.40000000596,934.7999999970198,True,HRV,HRV_0145,2022-11-30 18:00:47
