trialN,stimuli,trialStartTime,trialStartTime_UNIX,stimulus1,stimulus2,stimulus1Bid,stimulus2Bid,delta,selected,rt,rt_UNIX,rt_perfnow,receivedResponse,rsp,trialEndTime,trialDuration,trialEndTime_UNIX,trialDuration_UNIX,exp,subjectId,date
0,"[{'imgObject': {}, 'id': 'rigatoni', 'src': '/static/foodstim60/rigatoni.jpg', 'key': 'u', 'origWidth': 411, 'origHeight': 411, 'width': 411, 'height': 411, 'widthPercent': 0.45, 'rescaleHeight': False, 'trialN': 0, 'loaded': True, 'loadedTime': 2091.0999999940395, 'positionName': 'LEFT', 'positionCoords': [510.6, 334.5], 'bid': 1.1}, {'imgObject': {}, 'id': 'cherries', 'src': '/static/foodstim60/cherries.jpg', 'key': 'i', 'origWidth': 410, 'origHeight': 411, 'width': 410, 'height': 411, 'widthPercent': 0.45, 'rescaleHeight': False, 'trialN': 0, 'loaded': True, 'loadedTime': 2177.7000000178814, 'positionName': 'RIGHT', 'positionCoords': [998.4, 334.5], 'bid': 1.22}]",3028.5999999940395,1669829420309,rigatoni,cherries,1.1,1.22,0.11999999999999988,cherries,1252.6000000238419,1253,1252.9000000059605,True,i,4795.5,1766.9000000059605,1669829422076,1767,HRV,HRV_0092,2022-11-30 17:35:58
1,"[{'imgObject': {}, 'id': 'fruitsalad', 'src': '/static/foodstim60/fruitsalad.jpg', 'key': 'u', 'origWidth': 410, 'origHeight': 410, 'width': 410, 'height': 410, 'widthPercent': 0.45, 'rescaleHeight': False, 'trialN': 1, 'loaded': True, 'loadedTime': 2202.0999999940395, 'positionName': 'LEFT', 'positionCoords': [511.6, 335], 'bid': 1.84}, {'imgObject': {}, 'id': 'corn cob', 'src': '/static/foodstim60/corn cob.jpg', 'key': 'i', 'origWidth': 411, 'origHeight': 411, 'width': 411, 'height': 411, 'widthPercent': 0.45, 'rescaleHeight': False, 'trialN': 1, 'loaded': True, 'loadedTime': 2273.5, 'positionName': 'RIGHT', 'positionCoords': [998.4, 334.5], 'bid': 1.36}]",4795.9000000059605,1669829422076,fruitsalad,corn cob,1.84,1.36,-0.48,fruitsalad,971.0999999940395,972,971.5999999940395,True,u,6270.200000017881,1474.300000011921,1669829423550,1474,HRV,HRV_0092,2022-11-30 17:35:58
2,"[{'imgObject': {}, 'id': 'granola w milk', 'src': '/static/foodstim60/granola w milk.jpg', 'key': 'u', 'origWidth': 410, 'origHeight': 410, 'width': 410, 'height': 410, 'widthPercent': 0.45, 'rescaleHeight': False, 'trialN': 2, 'loaded': True, 'loadedTime': 2273.9000000059605, 'positionName': 'LEFT', 'positionCoords': [511.6, 335], 'bid': 0.43}, {'imgObject': {}, 'id': 'rigatoni', 'src': '/static/foodstim60/rigatoni.jpg', 'key': 'i', 'origWidth': 411, 'origHeight': 411, 'width': 411, 'height': 411, 'widthPercent': 0.45, 'rescaleHeight': False, 'trialN': 2, 'loaded': True, 'loadedTime': 2055.5, 'positionName': 'RIGHT', 'positionCoords': [998.4, 334.5], 'bid': 1.1}]",6270.5,1669829423551,granola w milk,rigatoni,0.43,1.1,0.6700000000000002,granola w milk,1261.5999999940395,1262,1262.0,True,u,8037.300000011921,1766.800000011921,1669829425318,1767,HRV,HRV_0092,2022-11-30 17:35:58
3,"[{'imgObject': {}, 'id': 'shreddedwheatwithmilk', 'src': '/static/foodstim60/shreddedwheatwithmilk.jpg', 'key': 'u', 'origWidth': 410, 'origHeight': 410, 'width': 410, 'height': 410, 'widthPercent': 0.45, 'rescaleHeight': False, 'trialN': 3, 'loaded': True, 'loadedTime': 2302.5999999940395, 'positionName': 'LEFT', 'positionCoords': [511.6, 335], 'bid': 1.08}, {'imgObject': {}, 'id': 'corn cob', 'src': '/static/foodstim60/corn cob.jpg', 'key': 'i', 'origWidth': 411, 'origHeight': 411, 'width': 411, 'height': 411, 'widthPercent': 0.45, 'rescaleHeight': False, 'trialN': 3, 'loaded': True, 'loadedTime': 2271.0999999940395, 'positionName': 'RIGHT', 'positionCoords': [998.4, 334.5], 'bid': 1.36}]",8037.5,1669829425318,shreddedwheatwithmilk,corn cob,1.08,1.36,0.28,corn cob,909.3000000119209,909,909.8000000119209,True,i,9454.700000017881,1417.2000000178814,1669829426735,1417,HRV,HRV_0092,2022-11-30 17:35:58
4,"[{'imgObject': {}, 'id': 'omelette', 'src': '/static/foodstim60/omelette.jpg', 'key': 'u', 'origWidth': 410, 'origHeight': 409, 'width': 410, 'height': 409, 'widthPercent': 0.45, 'rescaleHeight': False, 'trialN': 4, 'loaded': True, 'loadedTime': 2316.7000000178814, 'positionName': 'LEFT', 'positionCoords': [511.6, 335.5], 'bid': 1.25}, {'imgObject': {}, 'id': 'baked potato', 'src': '/static/foodstim60/baked potato.jpg', 'key': 'i', 'origWidth': 409, 'origHeight': 410, 'width': 409, 'height': 410, 'widthPercent': 0.45, 'rescaleHeight': False, 'trialN': 4, 'loaded': True, 'loadedTime': 2254.300000011921, 'positionName': 'RIGHT', 'positionCoords': [998.4, 335], 'bid': 1.32}]",9455.200000017881,1669829426735,omelette,baked potato,1.25,1.32,0.07000000000000006,omelette,1010.3999999761581,1011,1010.6999999880791,True,u,10983.90000000596,1528.699999988079,1669829428264,1529,HRV,HRV_0092,2022-11-30 17:35:58
5,"[{'imgObject': {}, 'id': 'shreddedwheatwithmilk', 'src': '/static/foodstim60/shreddedwheatwithmilk.jpg', 'key': 'u', 'origWidth': 410, 'origHeight': 410, 'width': 410, 'height': 410, 'widthPercent': 0.45, 'rescaleHeight': False, 'trialN': 5, 'loaded': True, 'loadedTime': 2313.800000011921, 'positionName': 'LEFT', 'positionCoords': [511.6, 335], 'bid': 1.08}, {'imgObject': {}, 'id': 'cherry tomato', 'src': '/static/foodstim60/cherry tomato.jpg', 'key': 'i', 'origWidth': 410, 'origHeight': 410, 'width': 410, 'height': 410, 'widthPercent': 0.45, 'rescaleHeight': False, 'trialN': 5, 'loaded': True, 'loadedTime': 2293.5, 'positionName': 'RIGHT', 'positionCoords': [998.4, 335], 'bid': 1.5}]",10984.300000011921,1669829428264,shreddedwheatwithmilk,cherry tomato,1.08,1.5,0.41999999999999993,cherry tomato,807.0,808,807.4000000059605,True,i,12303.200000017881,1318.9000000059605,1669829429583,1319,HRV,HRV_0092,2022-11-30 17:35:58
6,"[{'imgObject': {}, 'id': 'salmon', 'src': '/static/foodstim60/salmon.jpg', 'key': 'u', 'origWidth': 410, 'origHeight': 409, 'width': 410, 'height': 409, 'widthPercent': 0.45, 'rescaleHeight': False, 'trialN': 6, 'loaded': True, 'loadedTime': 2319.4000000059605, 'positionName': 'LEFT', 'positionCoords': [511.6, 335.5], 'bid': 1.58}, {'imgObject': {}, 'id': 'luckycharms', 'src': '/static/foodstim60/luckycharms.jpg', 'key': 'i', 'origWidth': 410, 'origHeight': 409, 'width': 410, 'height': 409, 'widthPercent': 0.45, 'rescaleHeight': False, 'trialN': 6, 'loaded': True, 'loadedTime': 2337.800000011921, 'positionName': 'RIGHT', 'positionCoords': [998.4, 335.5], 'bid': 1.46}]",12303.59999999404,1669829429584,salmon,luckycharms,1.58,1.46,-0.1200000000000001,salmon,760.0,760,760.6000000238419,True,u,13565.300000011921,1261.7000000178814,1669829430845,1261,HRV,HRV_0092,2022-11-30 17:35:58
7,"[{'imgObject': {}, 'id': 'burger', 'src': '/static/foodstim60/burger.jpg', 'key': 'u', 'origWidth': 409, 'origHeight': 409, 'width': 409, 'height': 409, 'widthPercent': 0.45, 'rescaleHeight': False, 'trialN': 7, 'loaded': True, 'loadedTime': 2372.7000000178814, 'positionName': 'LEFT', 'positionCoords': [512.6, 335.5], 'bid': 1.91}, {'imgObject': {}, 'id': 'salad w chicken', 'src': '/static/foodstim60/salad w chicken.jpg', 'key': 'i', 'origWidth': 411, 'origHeight': 411, 'width': 411, 'height': 411, 'widthPercent': 0.45, 'rescaleHeight': False, 'trialN': 7, 'loaded': True, 'loadedTime': 2393.2000000178814, 'positionName': 'RIGHT', 'positionCoords': [998.4, 334.5], 'bid': 1.37}]",13565.59999999404,1669829430846,burger,salad w chicken,1.91,1.37,-0.5399999999999998,burger,1525.4000000059605,1526,1525.800000011921,True,u,15603.200000017881,2037.6000000238419,1669829432883,2037,HRV,HRV_0092,2022-11-30 17:35:58
8,"[{'imgObject': {}, 'id': 'eggs', 'src': '/static/foodstim60/eggs.jpg', 'key': 'u', 'origWidth': 409, 'origHeight': 409, 'width': 409, 'height': 409, 'widthPercent': 0.45, 'rescaleHeight': False, 'trialN': 8, 'loaded': True, 'loadedTime': 2399.2000000178814, 'positionName': 'LEFT', 'positionCoords': [512.6, 335.5], 'bid': 1}, {'imgObject': {}, 'id': 'grilled chicken strips', 'src': '/static/foodstim60/grilled chicken strips.jpg', 'key': 'i', 'origWidth': 410, 'origHeight': 411, 'width': 410, 'height': 411, 'widthPercent': 0.45, 'rescaleHeight': False, 'trialN': 8, 'loaded': True, 'loadedTime': 2400.5999999940395, 'positionName': 'RIGHT', 'positionCoords': [998.4, 334.5], 'bid': 1.47}]",15603.59999999404,1669829432884,eggs,grilled chicken strips,1.0,1.47,0.47,grilled chicken strips,901.8000000119209,902,902.1000000238419,True,i,17016.09999999404,1412.5,1669829434296,1412,HRV,HRV_0092,2022-11-30 17:35:58
9,"[{'imgObject': {}, 'id': 'lox', 'src': '/static/foodstim60/lox.jpg', 'key': 'u', 'origWidth': 410, 'origHeight': 411, 'width': 410, 'height': 411, 'widthPercent': 0.45, 'rescaleHeight': False, 'trialN': 9, 'loaded': True, 'loadedTime': 2406.5, 'positionName': 'LEFT', 'positionCoords': [511.6, 334.5], 'bid': 1.53}, {'imgObject': {}, 'id': 'omelette', 'src': '/static/foodstim60/omelette.jpg', 'key': 'i', 'origWidth': 410, 'origHeight': 409, 'width': 410, 'height': 409, 'widthPercent': 0.45, 'rescaleHeight': False, 'trialN': 9, 'loaded': True, 'loadedTime': 2316.300000011921, 'positionName': 'RIGHT', 'positionCoords': [998.4, 335.5], 'bid': 1.25}]",17016.30000001192,1669829434296,lox,omelette,1.53,1.25,-0.28,omelette,2351.2999999821186,2352,2351.699999988079,True,i,19880.30000001192,2864.0,1669829437160,2864,HRV,HRV_0092,2022-11-30 17:35:58
10,"[{'imgObject': {}, 'id': 'sweetpotato', 'src': '/static/foodstim60/sweetpotato.jpg', 'key': 'u', 'origWidth': 410, 'origHeight': 410, 'width': 410, 'height': 410, 'widthPercent': 0.45, 'rescaleHeight': False, 'trialN': 10, 'loaded': True, 'loadedTime': 2427.300000011921, 'positionName': 'LEFT', 'positionCoords': [511.6, 335], 'bid': 1.26}, {'imgObject': {}, 'id': 'turkey sandwich', 'src': '/static/foodstim60/turkey sandwich.jpg', 'key': 'i', 'origWidth': 409, 'origHeight': 409, 'width': 409, 'height': 409, 'widthPercent': 0.45, 'rescaleHeight': False, 'trialN': 10, 'loaded': True, 'loadedTime': 2483.2000000178814, 'positionName': 'RIGHT', 'positionCoords': [998.4, 335.5], 'bid': 1.32}]",19880.59999999404,1669829437161,sweetpotato,turkey sandwich,1.26,1.32,0.06000000000000005,turkey sandwich,945.0,945,945.4000000059605,True,i,21345.40000000596,1464.800000011921,1669829438626,1465,HRV,HRV_0092,2022-11-30 17:35:58
11,"[{'imgObject': {}, 'id': 'Grapes', 'src': '/static/foodstim60/Grapes.jpg', 'key': 'u', 'origWidth': 411, 'origHeight': 411, 'width': 411, 'height': 411, 'widthPercent': 0.45, 'rescaleHeight': False, 'trialN': 11, 'loaded': True, 'loadedTime': 2492.9000000059605, 'positionName': 'LEFT', 'positionCoords': [510.6, 334.5], 'bid': 1.68}, {'imgObject': {}, 'id': 'blueberries', 'src': '/static/foodstim60/blueberries.jpg', 'key': 'i', 'origWidth': 411, 'origHeight': 411, 'width': 411, 'height': 411, 'widthPercent': 0.45, 'rescaleHeight': False, 'trialN': 11, 'loaded': True, 'loadedTime': 2520.300000011921, 'positionName': 'RIGHT', 'positionCoords': [998.4, 334.5], 'bid': 1.64}]",21345.5,1669829438626,Grapes,blueberries,1.68,1.64,-0.040000000000000036,blueberries,805.5999999940395,806,805.9000000059605,True,i,22654.90000000596,1309.4000000059605,1669829439935,1309,HRV,HRV_0092,2022-11-30 17:35:58
12,"[{'imgObject': {}, 'id': 'rigatoni and sauce', 'src': '/static/foodstim60/rigatoni and sauce.jpg', 'key': 'u', 'origWidth': 410, 'origHeight': 411, 'width': 410, 'height': 411, 'widthPercent': 0.45, 'rescaleHeight': False, 'trialN': 12, 'loaded': True, 'loadedTime': 2529.9000000059605, 'positionName': 'LEFT', 'positionCoords': [511.6, 334.5], 'bid': 1.46}, {'imgObject': {}, 'id': 'grilled chicken strips', 'src': '/static/foodstim60/grilled chicken strips.jpg', 'key': 'i', 'origWidth': 410, 'origHeight': 411, 'width': 410, 'height': 411, 'widthPercent': 0.45, 'rescaleHeight': False, 'trialN': 12, 'loaded': True, 'loadedTime': 2402.2000000178814, 'positionName': 'RIGHT', 'positionCoords': [998.4, 334.5], 'bid': 1.47}]",22655.0,1669829439935,rigatoni and sauce,grilled chicken strips,1.46,1.47,0.010000000000000009,grilled chicken strips,1079.800000011921,1080,1080.2000000178814,True,i,24241.5,1586.5,1669829441522,1587,HRV,HRV_0092,2022-11-30 17:35:58
13,"[{'imgObject': {}, 'id': 'grilled chicken strips', 'src': '/static/foodstim60/grilled chicken strips.jpg', 'key': 'u', 'origWidth': 410, 'origHeight': 411, 'width': 410, 'height': 411, 'widthPercent': 0.45, 'rescaleHeight': False, 'trialN': 13, 'loaded': True, 'loadedTime': 2402, 'positionName': 'LEFT', 'positionCoords': [511.6, 334.5], 'bid': 1.47}, {'imgObject': {}, 'id': 'salad w chicken', 'src': '/static/foodstim60/salad w chicken.jpg', 'key': 'i', 'origWidth': 411, 'origHeight': 411, 'width': 411, 'height': 411, 'widthPercent': 0.45, 'rescaleHeight': False, 'trialN': 13, 'loaded': True, 'loadedTime': 2391.9000000059605, 'positionName': 'RIGHT', 'positionCoords': [998.4, 334.5], 'bid': 1.37}]",24242.0,1669829441522,grilled chicken strips,salad w chicken,1.47,1.37,-0.09999999999999987,grilled chicken strips,757.5,758,757.8000000119209,True,u,25515.20000001788,1273.2000000178814,1669829442795,1273,HRV,HRV_0092,2022-11-30 17:35:58
14,"[{'imgObject': {}, 'id': 'kiwi', 'src': '/static/foodstim60/kiwi.jpg', 'key': 'u', 'origWidth': 410, 'origHeight': 410, 'width': 410, 'height': 410, 'widthPercent': 0.45, 'rescaleHeight': False, 'trialN': 14, 'loaded': True, 'loadedTime': 2538.300000011921, 'positionName': 'LEFT', 'positionCoords': [511.6, 335], 'bid': 1.69}, {'imgObject': {}, 'id': 'froot loops w milk', 'src': '/static/foodstim60/froot loops w milk.jpg', 'key': 'i', 'origWidth': 410, 'origHeight': 410, 'width': 410, 'height': 410, 'widthPercent': 0.45, 'rescaleHeight': False, 'trialN': 14, 'loaded': True, 'loadedTime': 2542.9000000059605, 'positionName': 'RIGHT', 'positionCoords': [998.4, 335], 'bid': 1.5}]",25515.59999999404,1669829442796,kiwi,froot loops w milk,1.69,1.5,-0.18999999999999995,kiwi,1043.9000000059605,1044,1044.1000000238419,True,u,27070.80000001192,1555.2000000178814,1669829444351,1555,HRV,HRV_0092,2022-11-30 17:35:58
15,"[{'imgObject': {}, 'id': 'tacos', 'src': '/static/foodstim60/tacos.jpg', 'key': 'u', 'origWidth': 411, 'origHeight': 411, 'width': 411, 'height': 411, 'widthPercent': 0.45, 'rescaleHeight': False, 'trialN': 15, 'loaded': True, 'loadedTime': 2546.5, 'positionName': 'LEFT', 'positionCoords': [510.6, 334.5], 'bid': 1.54}, {'imgObject': {}, 'id': 'froot loops w milk', 'src': '/static/foodstim60/froot loops w milk.jpg', 'key': 'i', 'origWidth': 410, 'origHeight': 410, 'width': 410, 'height': 410, 'widthPercent': 0.45, 'rescaleHeight': False, 'trialN': 15, 'loaded': True, 'loadedTime': 2541.9000000059605, 'positionName': 'RIGHT', 'positionCoords': [998.4, 335], 'bid': 1.5}]",27071.09999999404,1669829444351,tacos,froot loops w milk,1.54,1.5,-0.040000000000000036,tacos,687.5,688,687.8000000119209,True,u,28270.40000000596,1199.300000011921,1669829445551,1200,HRV,HRV_0092,2022-11-30 17:35:58
16,"[{'imgObject': {}, 'id': 'blackbeanswithrice', 'src': '/static/foodstim60/blackbeanswithrice.jpg', 'key': 'u', 'origWidth': 410, 'origHeight': 410, 'width': 410, 'height': 410, 'widthPercent': 0.45, 'rescaleHeight': False, 'trialN': 16, 'loaded': True, 'loadedTime': 2547.300000011921, 'positionName': 'LEFT', 'positionCoords': [511.6, 335], 'bid': 1.14}, {'imgObject': {}, 'id': 'seaweed', 'src': '/static/foodstim60/seaweed.jpg', 'key': 'i', 'origWidth': 410, 'origHeight': 410, 'width': 410, 'height': 410, 'widthPercent': 0.45, 'rescaleHeight': False, 'trialN': 16, 'loaded': True, 'loadedTime': 2551.800000011921, 'positionName': 'RIGHT', 'positionCoords': [998.4, 335], 'bid': 0.61}]",28270.59999999404,1669829445551,blackbeanswithrice,seaweed,1.14,0.61,-0.5299999999999999,seaweed,1299.4000000059605,1299,1299.7000000178814,True,i,30081.09999999404,1810.5,1669829447361,1810,HRV,HRV_0092,2022-11-30 17:35:58
17,"[{'imgObject': {}, 'id': 'burger', 'src': '/static/foodstim60/burger.jpg', 'key': 'u', 'origWidth': 409, 'origHeight': 409, 'width': 409, 'height': 409, 'widthPercent': 0.45, 'rescaleHeight': False, 'trialN': 17, 'loaded': True, 'loadedTime': 2387.800000011921, 'positionName': 'LEFT', 'positionCoords': [512.6, 335.5], 'bid': 1.91}, {'imgObject': {}, 'id': 'pear', 'src': '/static/foodstim60/pear.jpg', 'key': 'i', 'origWidth': 411, 'origHeight': 410, 'width': 411, 'height': 410, 'widthPercent': 0.45, 'rescaleHeight': False, 'trialN': 17, 'loaded': True, 'loadedTime': 2555.9000000059605, 'positionName': 'RIGHT', 'positionCoords': [998.4, 335], 'bid': 1.51}]",30081.30000001192,1669829447361,burger,pear,1.91,1.51,-0.3999999999999999,pear,941.0999999940395,942,941.4000000059605,True,i,31526.59999999404,1445.2999999821186,1669829448807,1446,HRV,HRV_0092,2022-11-30 17:35:58
18,"[{'imgObject': {}, 'id': 'turkey sandwich', 'src': '/static/foodstim60/turkey sandwich.jpg', 'key': 'u', 'origWidth': 409, 'origHeight': 409, 'width': 409, 'height': 409, 'widthPercent': 0.45, 'rescaleHeight': False, 'trialN': 18, 'loaded': True, 'loadedTime': 2456.7000000178814, 'positionName': 'LEFT', 'positionCoords': [512.6, 335.5], 'bid': 1.32}, {'imgObject': {}, 'id': 'apple slices', 'src': '/static/foodstim60/apple slices.jpg', 'key': 'i', 'origWidth': 409, 'origHeight': 410, 'width': 409, 'height': 410, 'widthPercent': 0.45, 'rescaleHeight': False, 'trialN': 18, 'loaded': True, 'loadedTime': 2573.0999999940395, 'positionName': 'RIGHT', 'positionCoords': [998.4, 335], 'bid': 0.95}]",31526.90000000596,1669829448807,turkey sandwich,apple slices,1.32,0.95,-0.3700000000000001,apple slices,913.0999999940395,913,913.3000000119209,True,i,32945.20000001788,1418.300000011921,1669829450225,1418,HRV,HRV_0092,2022-11-30 17:35:58
19,"[{'imgObject': {}, 'id': 'blackbeanswithrice', 'src': '/static/foodstim60/blackbeanswithrice.jpg', 'key': 'u', 'origWidth': 410, 'origHeight': 410, 'width': 410, 'height': 410, 'widthPercent': 0.45, 'rescaleHeight': False, 'trialN': 19, 'loaded': True, 'loadedTime': 2548.800000011921, 'positionName': 'LEFT', 'positionCoords': [511.6, 335], 'bid': 1.14}, {'imgObject': {}, 'id': 'salad w chicken', 'src': '/static/foodstim60/salad w chicken.jpg', 'key': 'i', 'origWidth': 411, 'origHeight': 411, 'width': 411, 'height': 411, 'widthPercent': 0.45, 'rescaleHeight': False, 'trialN': 19, 'loaded': True, 'loadedTime': 2390, 'positionName': 'RIGHT', 'positionCoords': [998.4, 334.5], 'bid': 1.37}]",32945.30000001192,1669829450226,blackbeanswithrice,salad w chicken,1.14,1.37,0.2300000000000002,blackbeanswithrice,737.1999999880791,737,737.5,True,u,34194.70000001788,1249.4000000059605,1669829451475,1249,HRV,HRV_0092,2022-11-30 17:35:58
20,"[{'imgObject': {}, 'id': 'turkey sandwich', 'src': '/static/foodstim60/turkey sandwich.jpg', 'key': 'u', 'origWidth': 409, 'origHeight': 409, 'width': 409, 'height': 409, 'widthPercent': 0.45, 'rescaleHeight': False, 'trialN': 20, 'loaded': True, 'loadedTime': 2482.7000000178814, 'positionName': 'LEFT', 'positionCoords': [512.6, 335.5], 'bid': 1.32}, {'imgObject': {}, 'id': 'baked potato', 'src': '/static/foodstim60/baked potato.jpg', 'key': 'i', 'origWidth': 409, 'origHeight': 410, 'width': 409, 'height': 410, 'widthPercent': 0.45, 'rescaleHeight': False, 'trialN': 20, 'loaded': True, 'loadedTime': 2260.9000000059605, 'positionName': 'RIGHT', 'positionCoords': [998.4, 335], 'bid': 1.32}]",34194.80000001192,1669829451475,turkey sandwich,baked potato,1.32,1.32,0.0,turkey sandwich,793.0999999940395,793,793.4000000059605,True,u,35503.0,1308.199999988079,1669829452783,1308,HRV,HRV_0092,2022-11-30 17:35:58
21,"[{'imgObject': {}, 'id': 'eggsalad', 'src': '/static/foodstim60/eggsalad.jpg', 'key': 'u', 'origWidth': 410, 'origHeight': 409, 'width': 410, 'height': 409, 'widthPercent': 0.45, 'rescaleHeight': False, 'trialN': 21, 'loaded': True, 'loadedTime': 2580.0999999940395, 'positionName': 'LEFT', 'positionCoords': [511.6, 335.5], 'bid': 1.58}, {'imgObject': {}, 'id': 'bagel plain', 'src': '/static/foodstim60/bagel plain.jpg', 'key': 'i', 'origWidth': 410, 'origHeight': 410, 'width': 410, 'height': 410, 'widthPercent': 0.45, 'rescaleHeight': False, 'trialN': 21, 'loaded': True, 'loadedTime': 2585.5999999940395, 'positionName': 'RIGHT', 'positionCoords': [998.4, 335], 'bid': 1.43}]",35503.30000001192,1669829452783,eggsalad,bagel plain,1.58,1.43,-0.15000000000000013,bagel plain,853.5,854,854.0,True,i,36876.09999999404,1372.7999999821186,1669829454156,1373,HRV,HRV_0092,2022-11-30 17:35:58
22,"[{'imgObject': {}, 'id': 'hashbrowns', 'src': '/static/foodstim60/hashbrowns.jpg', 'key': 'u', 'origWidth': 411, 'origHeight': 410, 'width': 411, 'height': 410, 'widthPercent': 0.45, 'rescaleHeight': False, 'trialN': 22, 'loaded': True, 'loadedTime': 2590.7000000178814, 'positionName': 'LEFT', 'positionCoords': [510.6, 335], 'bid': 1.28}, {'imgObject': {}, 'id': 'omelette', 'src': '/static/foodstim60/omelette.jpg', 'key': 'i', 'origWidth': 410, 'origHeight': 409, 'width': 410, 'height': 409, 'widthPercent': 0.45, 'rescaleHeight': False, 'trialN': 22, 'loaded': True, 'loadedTime': 2315.9000000059605, 'positionName': 'RIGHT', 'positionCoords': [998.4, 335.5], 'bid': 1.25}]",36876.30000001192,1669829454156,hashbrowns,omelette,1.28,1.25,-0.030000000000000027,omelette,899.5,900,899.9000000059605,True,i,38287.90000000596,1411.5999999940395,1669829455568,1412,HRV,HRV_0092,2022-11-30 17:35:58
23,"[{'imgObject': {}, 'id': 'blueberries', 'src': '/static/foodstim60/blueberries.jpg', 'key': 'u', 'origWidth': 411, 'origHeight': 411, 'width': 411, 'height': 411, 'widthPercent': 0.45, 'rescaleHeight': False, 'trialN': 23, 'loaded': True, 'loadedTime': 2523.4000000059605, 'positionName': 'LEFT', 'positionCoords': [510.6, 334.5], 'bid': 1.64}, {'imgObject': {}, 'id': 'veggieswithdip', 'src': '/static/foodstim60/veggieswithdip.jpg', 'key': 'i', 'origWidth': 409, 'origHeight': 409, 'width': 409, 'height': 409, 'widthPercent': 0.45, 'rescaleHeight': False, 'trialN': 23, 'loaded': True, 'loadedTime': 2592.0999999940395, 'positionName': 'RIGHT', 'positionCoords': [998.4, 335.5], 'bid': 1.6}]",38288.0,1669829455568,blueberries,veggieswithdip,1.64,1.6,-0.039999999999999813,blueberries,1028.0,1029,1028.5,True,u,39831.09999999404,1543.0999999940395,1669829457111,1543,HRV,HRV_0092,2022-11-30 17:35:58
24,"[{'imgObject': {}, 'id': 'cherry tomato', 'src': '/static/foodstim60/cherry tomato.jpg', 'key': 'u', 'origWidth': 410, 'origHeight': 410, 'width': 410, 'height': 410, 'widthPercent': 0.45, 'rescaleHeight': False, 'trialN': 24, 'loaded': True, 'loadedTime': 2300, 'positionName': 'LEFT', 'positionCoords': [511.6, 335], 'bid': 1.5}, {'imgObject': {}, 'id': 'luckycharms', 'src': '/static/foodstim60/luckycharms.jpg', 'key': 'i', 'origWidth': 410, 'origHeight': 409, 'width': 410, 'height': 409, 'widthPercent': 0.45, 'rescaleHeight': False, 'trialN': 24, 'loaded': True, 'loadedTime': 2340.5, 'positionName': 'RIGHT', 'positionCoords': [998.4, 335.5], 'bid': 1.46}]",39831.40000000596,1669829457112,cherry tomato,luckycharms,1.5,1.46,-0.040000000000000036,cherry tomato,786.0999999940395,786,786.3000000119209,True,u,41125.90000000596,1294.5,1669829458406,1294,HRV,HRV_0092,2022-11-30 17:35:58
25,"[{'imgObject': {}, 'id': 'baked potato', 'src': '/static/foodstim60/baked potato.jpg', 'key': 'u', 'origWidth': 409, 'origHeight': 410, 'width': 409, 'height': 410, 'widthPercent': 0.45, 'rescaleHeight': False, 'trialN': 25, 'loaded': True, 'loadedTime': 2227.800000011921, 'positionName': 'LEFT', 'positionCoords': [512.6, 335], 'bid': 1.32}, {'imgObject': {}, 'id': 'burrito', 'src': '/static/foodstim60/burrito.jpg', 'key': 'i', 'origWidth': 410, 'origHeight': 410, 'width': 410, 'height': 410, 'widthPercent': 0.45, 'rescaleHeight': False, 'trialN': 25, 'loaded': True, 'loadedTime': 2598.9000000059605, 'positionName': 'RIGHT', 'positionCoords': [998.4, 335], 'bid': 1.29}]",41125.90000000596,1669829458406,baked potato,burrito,1.32,1.29,-0.030000000000000027,burrito,1004.8000000119209,1005,1005.0999999940395,True,i,42647.80000001192,1521.9000000059605,1669829459928,1522,HRV,HRV_0092,2022-11-30 17:35:58
26,"[{'imgObject': {}, 'id': 'cherries', 'src': '/static/foodstim60/cherries.jpg', 'key': 'u', 'origWidth': 410, 'origHeight': 411, 'width': 410, 'height': 411, 'widthPercent': 0.45, 'rescaleHeight': False, 'trialN': 26, 'loaded': True, 'loadedTime': 2156.4000000059605, 'positionName': 'LEFT', 'positionCoords': [511.6, 334.5], 'bid': 1.22}, {'imgObject': {}, 'id': 'blackbeanswithrice', 'src': '/static/foodstim60/blackbeanswithrice.jpg', 'key': 'i', 'origWidth': 410, 'origHeight': 410, 'width': 410, 'height': 410, 'widthPercent': 0.45, 'rescaleHeight': False, 'trialN': 26, 'loaded': True, 'loadedTime': 2549.7000000178814, 'positionName': 'RIGHT', 'positionCoords': [998.4, 335], 'bid': 1.14}]",42648.20000001788,1669829459928,cherries,blackbeanswithrice,1.22,1.14,-0.08000000000000007,cherries,749.8999999761581,750,750.0999999940395,True,u,43907.30000001192,1259.0999999940395,1669829461187,1259,HRV,HRV_0092,2022-11-30 17:35:58
27,"[{'imgObject': {}, 'id': 'hotdog w must', 'src': '/static/foodstim60/hotdog w must.jpg', 'key': 'u', 'origWidth': 409, 'origHeight': 409, 'width': 409, 'height': 409, 'widthPercent': 0.45, 'rescaleHeight': False, 'trialN': 27, 'loaded': True, 'loadedTime': 2604.5, 'positionName': 'LEFT', 'positionCoords': [512.6, 335.5], 'bid': 1.42}, {'imgObject': {}, 'id': 'corn cob', 'src': '/static/foodstim60/corn cob.jpg', 'key': 'i', 'origWidth': 411, 'origHeight': 411, 'width': 411, 'height': 411, 'widthPercent': 0.45, 'rescaleHeight': False, 'trialN': 27, 'loaded': True, 'loadedTime': 2270.2000000178814, 'positionName': 'RIGHT', 'positionCoords': [998.4, 334.5], 'bid': 1.36}]",43907.40000000596,1669829461188,hotdog w must,corn cob,1.42,1.36,-0.05999999999999983,hotdog w must,676.0,676,676.3000000119209,True,u,45090.90000000596,1183.5,1669829462371,1183,HRV,HRV_0092,2022-11-30 17:35:58
28,"[{'imgObject': {}, 'id': 'burrito', 'src': '/static/foodstim60/burrito.jpg', 'key': 'u', 'origWidth': 410, 'origHeight': 410, 'width': 410, 'height': 410, 'widthPercent': 0.45, 'rescaleHeight': False, 'trialN': 28, 'loaded': True, 'loadedTime': 2600.0999999940395, 'positionName': 'LEFT', 'positionCoords': [511.6, 335], 'bid': 1.29}, {'imgObject': {}, 'id': 'blackbeanswithrice', 'src': '/static/foodstim60/blackbeanswithrice.jpg', 'key': 'i', 'origWidth': 410, 'origHeight': 410, 'width': 410, 'height': 410, 'widthPercent': 0.45, 'rescaleHeight': False, 'trialN': 28, 'loaded': True, 'loadedTime': 2549.300000011921, 'positionName': 'RIGHT', 'positionCoords': [998.4, 335], 'bid': 1.14}]",45091.20000001788,1669829462371,burrito,blackbeanswithrice,1.29,1.14,-0.15000000000000013,burrito,1219.699999988079,1220,1220.0999999940395,True,u,46819.80000001192,1728.5999999940395,1669829464100,1729,HRV,HRV_0092,2022-11-30 17:35:58
29,"[{'imgObject': {}, 'id': 'avocado', 'src': '/static/foodstim60/avocado.jpg', 'key': 'u', 'origWidth': 409, 'origHeight': 409, 'width': 409, 'height': 409, 'widthPercent': 0.45, 'rescaleHeight': False, 'trialN': 29, 'loaded': True, 'loadedTime': 2607, 'positionName': 'LEFT', 'positionCoords': [512.6, 335.5], 'bid': 1.84}, {'imgObject': {}, 'id': 'kiwi', 'src': '/static/foodstim60/kiwi.jpg', 'key': 'i', 'origWidth': 410, 'origHeight': 410, 'width': 410, 'height': 410, 'widthPercent': 0.45, 'rescaleHeight': False, 'trialN': 29, 'loaded': True, 'loadedTime': 2539.0999999940395, 'positionName': 'RIGHT', 'positionCoords': [998.4, 335], 'bid': 1.69}]",46820.09999999404,1669829464100,avocado,kiwi,1.84,1.69,-0.15000000000000013,avocado,850.0,851,850.3000000119209,True,u,48185.59999999404,1365.5,1669829465466,1366,HRV,HRV_0092,2022-11-30 17:35:58
30,"[{'imgObject': {}, 'id': 'burrito', 'src': '/static/foodstim60/burrito.jpg', 'key': 'u', 'origWidth': 410, 'origHeight': 410, 'width': 410, 'height': 410, 'widthPercent': 0.45, 'rescaleHeight': False, 'trialN': 30, 'loaded': True, 'loadedTime': 2596.5, 'positionName': 'LEFT', 'positionCoords': [511.6, 335], 'bid': 1.29}, {'imgObject': {}, 'id': 'eggsalad', 'src': '/static/foodstim60/eggsalad.jpg', 'key': 'i', 'origWidth': 410, 'origHeight': 409, 'width': 410, 'height': 409, 'widthPercent': 0.45, 'rescaleHeight': False, 'trialN': 30, 'loaded': True, 'loadedTime': 2579.2000000178814, 'positionName': 'RIGHT', 'positionCoords': [998.4, 335.5], 'bid': 1.58}]",48185.80000001192,1669829465466,burrito,eggsalad,1.29,1.58,0.29000000000000004,burrito,828.2999999821186,829,828.5999999940395,True,u,49525.30000001192,1339.5,1669829466805,1339,HRV,HRV_0092,2022-11-30 17:35:58
31,"[{'imgObject': {}, 'id': 'avocado', 'src': '/static/foodstim60/avocado.jpg', 'key': 'u', 'origWidth': 409, 'origHeight': 409, 'width': 409, 'height': 409, 'widthPercent': 0.45, 'rescaleHeight': False, 'trialN': 31, 'loaded': True, 'loadedTime': 2606.800000011921, 'positionName': 'LEFT', 'positionCoords': [512.6, 335.5], 'bid': 1.84}, {'imgObject': {}, 'id': 'veggieswithdip', 'src': '/static/foodstim60/veggieswithdip.jpg', 'key': 'i', 'origWidth': 409, 'origHeight': 409, 'width': 409, 'height': 409, 'widthPercent': 0.45, 'rescaleHeight': False, 'trialN': 31, 'loaded': True, 'loadedTime': 2595.0999999940395, 'positionName': 'RIGHT', 'positionCoords': [998.4, 335.5], 'bid': 1.6}]",49525.40000000596,1669829466806,avocado,veggieswithdip,1.84,1.6,-0.24,avocado,886.5,886,886.8000000119209,True,u,50917.30000001192,1391.9000000059605,1669829468198,1392,HRV,HRV_0092,2022-11-30 17:35:58
32,"[{'imgObject': {}, 'id': 'hashbrowns', 'src': '/static/foodstim60/hashbrowns.jpg', 'key': 'u', 'origWidth': 411, 'origHeight': 410, 'width': 411, 'height': 410, 'widthPercent': 0.45, 'rescaleHeight': False, 'trialN': 32, 'loaded': True, 'loadedTime': 2591.0999999940395, 'positionName': 'LEFT', 'positionCoords': [510.6, 335], 'bid': 1.28}, {'imgObject': {}, 'id': 'shreddedwheatwithmilk', 'src': '/static/foodstim60/shreddedwheatwithmilk.jpg', 'key': 'i', 'origWidth': 410, 'origHeight': 410, 'width': 410, 'height': 410, 'widthPercent': 0.45, 'rescaleHeight': False, 'trialN': 32, 'loaded': True, 'loadedTime': 2312.7000000178814, 'positionName': 'RIGHT', 'positionCoords': [998.4, 335], 'bid': 1.08}]",50917.59999999404,1669829468198,hashbrowns,shreddedwheatwithmilk,1.28,1.08,-0.19999999999999996,shreddedwheatwithmilk,1510.9000000059605,1511,1511.2000000178814,True,i,52947.70000001788,2030.1000000238419,1669829470228,2030,HRV,HRV_0092,2022-11-30 17:35:58
33,"[{'imgObject': {}, 'id': 'blueberries', 'src': '/static/foodstim60/blueberries.jpg', 'key': 'u', 'origWidth': 411, 'origHeight': 411, 'width': 411, 'height': 411, 'widthPercent': 0.45, 'rescaleHeight': False, 'trialN': 33, 'loaded': True, 'loadedTime': 2522.300000011921, 'positionName': 'LEFT', 'positionCoords': [510.6, 334.5], 'bid': 1.64}, {'imgObject': {}, 'id': 'turkey sandwich', 'src': '/static/foodstim60/turkey sandwich.jpg', 'key': 'i', 'origWidth': 409, 'origHeight': 409, 'width': 409, 'height': 409, 'widthPercent': 0.45, 'rescaleHeight': False, 'trialN': 33, 'loaded': True, 'loadedTime': 2483.5999999940395, 'positionName': 'RIGHT', 'positionCoords': [998.4, 335.5], 'bid': 1.32}]",52947.90000000596,1669829470228,blueberries,turkey sandwich,1.64,1.32,-0.31999999999999984,blueberries,576.1999999880791,577,576.5,True,u,54036.30000001192,1088.4000000059605,1669829471316,1088,HRV,HRV_0092,2022-11-30 17:35:58
34,"[{'imgObject': {}, 'id': 'kiwi', 'src': '/static/foodstim60/kiwi.jpg', 'key': 'u', 'origWidth': 410, 'origHeight': 410, 'width': 410, 'height': 410, 'widthPercent': 0.45, 'rescaleHeight': False, 'trialN': 34, 'loaded': True, 'loadedTime': 2539.5, 'positionName': 'LEFT', 'positionCoords': [511.6, 335], 'bid': 1.69}, {'imgObject': {}, 'id': 'mango', 'src': '/static/foodstim60/mango.jpg', 'key': 'i', 'origWidth': 411, 'origHeight': 411, 'width': 411, 'height': 411, 'widthPercent': 0.45, 'rescaleHeight': False, 'trialN': 34, 'loaded': True, 'loadedTime': 2623.0999999940395, 'positionName': 'RIGHT', 'positionCoords': [998.4, 334.5], 'bid': 1.36}]",54036.5,1669829471317,kiwi,mango,1.69,1.36,-0.32999999999999985,kiwi,847.7000000178814,848,848.0999999940395,True,u,55390.09999999404,1353.5999999940395,1669829472670,1353,HRV,HRV_0092,2022-11-30 17:35:58
35,"[{'imgObject': {}, 'id': 'olives', 'src': '/static/foodstim60/olives.jpg', 'key': 'u', 'origWidth': 410, 'origHeight': 410, 'width': 410, 'height': 410, 'widthPercent': 0.45, 'rescaleHeight': False, 'trialN': 35, 'loaded': True, 'loadedTime': 2651.800000011921, 'positionName': 'LEFT', 'positionCoords': [511.6, 335], 'bid': 0.36}, {'imgObject': {}, 'id': 'bagel and cc', 'src': '/static/foodstim60/bagel and cc.jpg', 'key': 'i', 'origWidth': 410, 'origHeight': 410, 'width': 410, 'height': 410, 'widthPercent': 0.45, 'rescaleHeight': False, 'trialN': 35, 'loaded': True, 'loadedTime': 2683, 'positionName': 'RIGHT', 'positionCoords': [998.4, 335], 'bid': 1.42}]",55390.59999999404,1669829472671,olives,bagel and cc,0.36,1.42,1.06,olives,3141.0,3141,3141.4000000059605,True,u,59047.30000001192,3656.7000000178814,1669829476327,3656,HRV,HRV_0092,2022-11-30 17:35:58
36,"[{'imgObject': {}, 'id': 'strawberries', 'src': '/static/foodstim60/strawberries.jpg', 'key': 'u', 'origWidth': 410, 'origHeight': 410, 'width': 410, 'height': 410, 'widthPercent': 0.45, 'rescaleHeight': False, 'trialN': 36, 'loaded': True, 'loadedTime': 2738.9000000059605, 'positionName': 'LEFT', 'positionCoords': [511.6, 335], 'bid': 0.36}, {'imgObject': {}, 'id': 'cherries', 'src': '/static/foodstim60/cherries.jpg', 'key': 'i', 'origWidth': 410, 'origHeight': 411, 'width': 410, 'height': 411, 'widthPercent': 0.45, 'rescaleHeight': False, 'trialN': 36, 'loaded': True, 'loadedTime': 2155.300000011921, 'positionName': 'RIGHT', 'positionCoords': [998.4, 334.5], 'bid': 1.22}]",59047.5,1669829476328,strawberries,cherries,0.36,1.22,0.86,cherries,985.0999999940395,985,985.4000000059605,True,i,60556.30000001192,1508.800000011921,1669829477836,1508,HRV,HRV_0092,2022-11-30 17:35:58
37,"[{'imgObject': {}, 'id': 'turkey sandwich', 'src': '/static/foodstim60/turkey sandwich.jpg', 'key': 'u', 'origWidth': 409, 'origHeight': 409, 'width': 409, 'height': 409, 'widthPercent': 0.45, 'rescaleHeight': False, 'trialN': 37, 'loaded': True, 'loadedTime': 2455, 'positionName': 'LEFT', 'positionCoords': [512.6, 335.5], 'bid': 1.32}, {'imgObject': {}, 'id': 'hotdog w must', 'src': '/static/foodstim60/hotdog w must.jpg', 'key': 'i', 'origWidth': 409, 'origHeight': 409, 'width': 409, 'height': 409, 'widthPercent': 0.45, 'rescaleHeight': False, 'trialN': 37, 'loaded': True, 'loadedTime': 2601.5999999940395, 'positionName': 'RIGHT', 'positionCoords': [998.4, 335.5], 'bid': 1.42}]",60556.5,1669829477837,turkey sandwich,hotdog w must,1.32,1.42,0.09999999999999987,turkey sandwich,1224.300000011921,1224,1224.5999999940395,True,u,62287.80000001192,1731.300000011921,1669829479568,1731,HRV,HRV_0092,2022-11-30 17:35:58
38,"[{'imgObject': {}, 'id': 'yogurt no spoon', 'src': '/static/foodstim60/yogurt no spoon.jpg', 'key': 'u', 'origWidth': 411, 'origHeight': 410, 'width': 411, 'height': 410, 'widthPercent': 0.45, 'rescaleHeight': False, 'trialN': 38, 'loaded': True, 'loadedTime': 2771.4000000059605, 'positionName': 'LEFT', 'positionCoords': [510.6, 335], 'bid': 1.5}, {'imgObject': {}, 'id': 'rigatoni', 'src': '/static/foodstim60/rigatoni.jpg', 'key': 'i', 'origWidth': 411, 'origHeight': 411, 'width': 411, 'height': 411, 'widthPercent': 0.45, 'rescaleHeight': False, 'trialN': 38, 'loaded': True, 'loadedTime': 2091.800000011921, 'positionName': 'RIGHT', 'positionCoords': [998.4, 334.5], 'bid': 1.1}]",62288.0,1669829479568,yogurt no spoon,rigatoni,1.5,1.1,-0.3999999999999999,yogurt no spoon,1015.5999999940395,1016,1016.0999999940395,True,u,63814.90000000596,1526.9000000059605,1669829481095,1527,HRV,HRV_0092,2022-11-30 17:35:58
39,"[{'imgObject': {}, 'id': 'baked potato', 'src': '/static/foodstim60/baked potato.jpg', 'key': 'u', 'origWidth': 409, 'origHeight': 410, 'width': 409, 'height': 410, 'widthPercent': 0.45, 'rescaleHeight': False, 'trialN': 39, 'loaded': True, 'loadedTime': 2255.5, 'positionName': 'LEFT', 'positionCoords': [512.6, 335], 'bid': 1.32}, {'imgObject': {}, 'id': 'veggieswithdip', 'src': '/static/foodstim60/veggieswithdip.jpg', 'key': 'i', 'origWidth': 409, 'origHeight': 409, 'width': 409, 'height': 409, 'widthPercent': 0.45, 'rescaleHeight': False, 'trialN': 39, 'loaded': True, 'loadedTime': 2593.5999999940395, 'positionName': 'RIGHT', 'positionCoords': [998.4, 335.5], 'bid': 1.6}]",63815.09999999404,1669829481095,baked potato,veggieswithdip,1.32,1.6,0.28,veggieswithdip,712.5,713,712.8000000119209,True,i,65033.59999999404,1218.5,1669829482314,1219,HRV,HRV_0092,2022-11-30 17:35:58
40,"[{'imgObject': {}, 'id': 'orange slices', 'src': '/static/foodstim60/orange slices.jpg', 'key': 'u', 'origWidth': 409, 'origHeight': 410, 'width': 409, 'height': 410, 'widthPercent': 0.45, 'rescaleHeight': False, 'trialN': 40, 'loaded': True, 'loadedTime': 2772.4000000059605, 'positionName': 'LEFT', 'positionCoords': [512.6, 335], 'bid': 1.3}, {'imgObject': {}, 'id': 'sushi w_condiments', 'src': '/static/foodstim60/sushi w_condiments.jpg', 'key': 'i', 'origWidth': 410, 'origHeight': 410, 'width': 410, 'height': 410, 'widthPercent': 0.45, 'rescaleHeight': False, 'trialN': 40, 'loaded': True, 'loadedTime': 2777.7000000178814, 'positionName': 'RIGHT', 'positionCoords': [998.4, 335], 'bid': 0.85}]",65033.80000001192,1669829482314,orange slices,sushi w_condiments,1.3,0.85,-0.45000000000000007,sushi w_condiments,1569.7999999821186,1570,1570.0,True,i,67119.80000001192,2086.0,1669829484400,2086,HRV,HRV_0092,2022-11-30 17:35:58
41,"[{'imgObject': {}, 'id': 'fruitsalad', 'src': '/static/foodstim60/fruitsalad.jpg', 'key': 'u', 'origWidth': 410, 'origHeight': 410, 'width': 410, 'height': 410, 'widthPercent': 0.45, 'rescaleHeight': False, 'trialN': 41, 'loaded': True, 'loadedTime': 2178.5999999940395, 'positionName': 'LEFT', 'positionCoords': [511.6, 335], 'bid': 1.84}, {'imgObject': {}, 'id': 'salmon', 'src': '/static/foodstim60/salmon.jpg', 'key': 'i', 'origWidth': 410, 'origHeight': 409, 'width': 410, 'height': 409, 'widthPercent': 0.45, 'rescaleHeight': False, 'trialN': 41, 'loaded': True, 'loadedTime': 2320.7000000178814, 'positionName': 'RIGHT', 'positionCoords': [998.4, 335.5], 'bid': 1.58}]",67119.90000000596,1669829484400,fruitsalad,salmon,1.84,1.58,-0.26,salmon,729.4000000059605,730,729.6999999880791,True,i,68367.20000001788,1247.300000011921,1669829485647,1247,HRV,HRV_0092,2022-11-30 17:35:58
42,"[{'imgObject': {}, 'id': 'baked potato', 'src': '/static/foodstim60/baked potato.jpg', 'key': 'u', 'origWidth': 409, 'origHeight': 410, 'width': 409, 'height': 410, 'widthPercent': 0.45, 'rescaleHeight': False, 'trialN': 42, 'loaded': True, 'loadedTime': 2259.800000011921, 'positionName': 'LEFT', 'positionCoords': [512.6, 335], 'bid': 1.32}, {'imgObject': {}, 'id': 'turkeysandwich', 'src': '/static/foodstim60/turkeysandwich.jpg', 'key': 'i', 'origWidth': 409, 'origHeight': 409, 'width': 409, 'height': 409, 'widthPercent': 0.45, 'rescaleHeight': False, 'trialN': 42, 'loaded': True, 'loadedTime': 2802, 'positionName': 'RIGHT', 'positionCoords': [998.4, 335.5], 'bid': 0.92}]",68367.5,1669829485648,baked potato,turkeysandwich,1.32,0.92,-0.4,turkeysandwich,1084.5,1084,1084.9000000059605,True,i,69971.09999999404,1603.5999999940395,1669829487251,1603,HRV,HRV_0092,2022-11-30 17:35:58
43,"[{'imgObject': {}, 'id': 'Tribe humus pita', 'src': '/static/foodstim60/Tribe humus pita.jpg', 'key': 'u', 'origWidth': 411, 'origHeight': 411, 'width': 411, 'height': 411, 'widthPercent': 0.45, 'rescaleHeight': False, 'trialN': 43, 'loaded': True, 'loadedTime': 2806.0999999940395, 'positionName': 'LEFT', 'positionCoords': [510.6, 334.5], 'bid': 1.37}, {'imgObject': {}, 'id': 'steak', 'src': '/static/foodstim60/steak.jpg', 'key': 'i', 'origWidth': 410, 'origHeight': 410, 'width': 410, 'height': 410, 'widthPercent': 0.45, 'rescaleHeight': False, 'trialN': 43, 'loaded': True, 'loadedTime': 2863.0999999940395, 'positionName': 'RIGHT', 'positionCoords': [998.4, 335], 'bid': 1.43}]",69971.30000001192,1669829487251,Tribe humus pita,steak,1.37,1.43,0.05999999999999983,steak,1074.4000000059605,1075,1074.699999988079,True,i,71562.70000001788,1591.4000000059605,1669829488843,1592,HRV,HRV_0092,2022-11-30 17:35:58
44,"[{'imgObject': {}, 'id': 'cherries', 'src': '/static/foodstim60/cherries.jpg', 'key': 'u', 'origWidth': 410, 'origHeight': 411, 'width': 410, 'height': 411, 'widthPercent': 0.45, 'rescaleHeight': False, 'trialN': 44, 'loaded': True, 'loadedTime': 2178.0999999940395, 'positionName': 'LEFT', 'positionCoords': [511.6, 334.5], 'bid': 1.22}, {'imgObject': {}, 'id': 'banana', 'src': '/static/foodstim60/banana.jpg', 'key': 'i', 'origWidth': 410, 'origHeight': 410, 'width': 410, 'height': 410, 'widthPercent': 0.45, 'rescaleHeight': False, 'trialN': 44, 'loaded': True, 'loadedTime': 2866, 'positionName': 'RIGHT', 'positionCoords': [998.4, 335], 'bid': 1.51}]",71562.80000001192,1669829488843,cherries,banana,1.22,1.51,0.29000000000000004,cherries,726.9000000059605,727,727.2999999821186,True,u,72809.59999999404,1246.7999999821186,1669829490090,1247,HRV,HRV_0092,2022-11-30 17:35:58
45,"[{'imgObject': {}, 'id': 'olives', 'src': '/static/foodstim60/olives.jpg', 'key': 'u', 'origWidth': 410, 'origHeight': 410, 'width': 410, 'height': 410, 'widthPercent': 0.45, 'rescaleHeight': False, 'trialN': 45, 'loaded': True, 'loadedTime': 2652.2000000178814, 'positionName': 'LEFT', 'positionCoords': [511.6, 335], 'bid': 0.36}, {'imgObject': {}, 'id': 'roastedpotatoes', 'src': '/static/foodstim60/roastedpotatoes.jpg', 'key': 'i', 'origWidth': 409, 'origHeight': 410, 'width': 409, 'height': 410, 'widthPercent': 0.45, 'rescaleHeight': False, 'trialN': 45, 'loaded': True, 'loadedTime': 2868.7000000178814, 'positionName': 'RIGHT', 'positionCoords': [998.4, 335], 'bid': 1.08}]",72810.0,1669829490090,olives,roastedpotatoes,0.36,1.08,0.7200000000000001,olives,2026.0,2026,2026.2000000178814,True,u,75349.0,2539.0,1669829492629,2539,HRV,HRV_0092,2022-11-30 17:35:58
46,"[{'imgObject': {}, 'id': 'cherry tomato', 'src': '/static/foodstim60/cherry tomato.jpg', 'key': 'u', 'origWidth': 410, 'origHeight': 410, 'width': 410, 'height': 410, 'widthPercent': 0.45, 'rescaleHeight': False, 'trialN': 46, 'loaded': True, 'loadedTime': 2296.2000000178814, 'positionName': 'LEFT', 'positionCoords': [511.6, 335], 'bid': 1.5}, {'imgObject': {}, 'id': 'veggieswithdip', 'src': '/static/foodstim60/veggieswithdip.jpg', 'key': 'i', 'origWidth': 409, 'origHeight': 409, 'width': 409, 'height': 409, 'widthPercent': 0.45, 'rescaleHeight': False, 'trialN': 46, 'loaded': True, 'loadedTime': 2595, 'positionName': 'RIGHT', 'positionCoords': [998.4, 335.5], 'bid': 1.6}]",75349.20000001788,1669829492629,cherry tomato,veggieswithdip,1.5,1.6,0.10000000000000009,cherry tomato,862.6999999880791,863,862.8999999761581,True,u,76731.0,1381.7999999821186,1669829494011,1382,HRV,HRV_0092,2022-11-30 17:35:58
47,"[{'imgObject': {}, 'id': 'rigatoni', 'src': '/static/foodstim60/rigatoni.jpg', 'key': 'u', 'origWidth': 411, 'origHeight': 411, 'width': 411, 'height': 411, 'widthPercent': 0.45, 'rescaleHeight': False, 'trialN': 47, 'loaded': True, 'loadedTime': 2056.0999999940395, 'positionName': 'LEFT', 'positionCoords': [510.6, 334.5], 'bid': 1.1}, {'imgObject': {}, 'id': 'edamame', 'src': '/static/foodstim60/edamame.jpg', 'key': 'i', 'origWidth': 409, 'origHeight': 410, 'width': 409, 'height': 410, 'widthPercent': 0.45, 'rescaleHeight': False, 'trialN': 47, 'loaded': True, 'loadedTime': 2896.0999999940395, 'positionName': 'RIGHT', 'positionCoords': [998.4, 335], 'bid': 1.29}]",76731.0,1669829494011,rigatoni,edamame,1.1,1.29,0.18999999999999995,edamame,857.2000000178814,858,857.5999999940395,True,i,78105.5,1374.5,1669829495386,1375,HRV,HRV_0092,2022-11-30 17:35:58
48,"[{'imgObject': {}, 'id': 'strawberries', 'src': '/static/foodstim60/strawberries.jpg', 'key': 'u', 'origWidth': 410, 'origHeight': 410, 'width': 410, 'height': 410, 'widthPercent': 0.45, 'rescaleHeight': False, 'trialN': 48, 'loaded': True, 'loadedTime': 2740, 'positionName': 'LEFT', 'positionCoords': [511.6, 335], 'bid': 0.36}, {'imgObject': {}, 'id': 'cheerios', 'src': '/static/foodstim60/cheerios.jpg', 'key': 'i', 'origWidth': 409, 'origHeight': 410, 'width': 409, 'height': 410, 'widthPercent': 0.45, 'rescaleHeight': False, 'trialN': 48, 'loaded': True, 'loadedTime': 2899.4000000059605, 'positionName': 'RIGHT', 'positionCoords': [998.4, 335], 'bid': 1.4}]",78105.70000001788,1669829495386,strawberries,cheerios,0.36,1.4,1.04,strawberries,1253.0999999940395,1253,1253.3999999761581,True,u,79861.40000000596,1755.699999988079,1669829497141,1755,HRV,HRV_0092,2022-11-30 17:35:58
49,"[{'imgObject': {}, 'id': 'raisin bran w milk', 'src': '/static/foodstim60/raisin bran w milk.jpg', 'key': 'u', 'origWidth': 411, 'origHeight': 411, 'width': 411, 'height': 411, 'widthPercent': 0.45, 'rescaleHeight': False, 'trialN': 49, 'loaded': True, 'loadedTime': 2934.800000011921, 'positionName': 'LEFT', 'positionCoords': [510.6, 334.5], 'bid': 0.43}, {'imgObject': {}, 'id': 'strawberries', 'src': '/static/foodstim60/strawberries.jpg', 'key': 'i', 'origWidth': 410, 'origHeight': 410, 'width': 410, 'height': 410, 'widthPercent': 0.45, 'rescaleHeight': False, 'trialN': 49, 'loaded': True, 'loadedTime': 2714.0999999940395, 'positionName': 'RIGHT', 'positionCoords': [998.4, 335], 'bid': 0.36}]",79861.59999999404,1669829497142,raisin bran w milk,strawberries,0.43,0.36,-0.07,strawberries,756.1000000238419,756,756.6000000238419,True,i,81135.20000001788,1273.6000000238419,1669829498415,1273,HRV,HRV_0092,2022-11-30 17:35:58
50,"[{'imgObject': {}, 'id': 'hashbrowns', 'src': '/static/foodstim60/hashbrowns.jpg', 'key': 'u', 'origWidth': 411, 'origHeight': 410, 'width': 411, 'height': 410, 'widthPercent': 0.45, 'rescaleHeight': False, 'trialN': 50, 'loaded': True, 'loadedTime': 2590.800000011921, 'positionName': 'LEFT', 'positionCoords': [510.6, 335], 'bid': 1.28}, {'imgObject': {}, 'id': 'apple slices', 'src': '/static/foodstim60/apple slices.jpg', 'key': 'i', 'origWidth': 409, 'origHeight': 410, 'width': 409, 'height': 410, 'widthPercent': 0.45, 'rescaleHeight': False, 'trialN': 50, 'loaded': True, 'loadedTime': 2570.300000011921, 'positionName': 'RIGHT', 'positionCoords': [998.4, 335], 'bid': 0.95}]",81135.30000001192,1669829498415,hashbrowns,apple slices,1.28,0.95,-0.33000000000000007,apple slices,1413.7999999821186,1415,1414.199999988079,True,i,83053.80000001192,1918.5,1669829500334,1919,HRV,HRV_0092,2022-11-30 17:35:58
51,"[{'imgObject': {}, 'id': 'turkeysandwich', 'src': '/static/foodstim60/turkeysandwich.jpg', 'key': 'u', 'origWidth': 409, 'origHeight': 409, 'width': 409, 'height': 409, 'widthPercent': 0.45, 'rescaleHeight': False, 'trialN': 51, 'loaded': True, 'loadedTime': 2803.4000000059605, 'positionName': 'LEFT', 'positionCoords': [512.6, 335.5], 'bid': 0.92}, {'imgObject': {}, 'id': 'sushi w_condiments', 'src': '/static/foodstim60/sushi w_condiments.jpg', 'key': 'i', 'origWidth': 410, 'origHeight': 410, 'width': 410, 'height': 410, 'widthPercent': 0.45, 'rescaleHeight': False, 'trialN': 51, 'loaded': True, 'loadedTime': 2775, 'positionName': 'RIGHT', 'positionCoords': [998.4, 335], 'bid': 0.85}]",83054.09999999404,1669829500334,turkeysandwich,sushi w_condiments,0.92,0.85,-0.07000000000000006,sushi w_condiments,988.6000000238419,989,989.0,True,i,84562.70000001788,1508.6000000238419,1669829501843,1509,HRV,HRV_0092,2022-11-30 17:35:58
52,"[{'imgObject': {}, 'id': 'hashbrowns', 'src': '/static/foodstim60/hashbrowns.jpg', 'key': 'u', 'origWidth': 411, 'origHeight': 410, 'width': 411, 'height': 410, 'widthPercent': 0.45, 'rescaleHeight': False, 'trialN': 52, 'loaded': True, 'loadedTime': 2587.5, 'positionName': 'LEFT', 'positionCoords': [510.6, 335], 'bid': 1.28}, {'imgObject': {}, 'id': 'edamame', 'src': '/static/foodstim60/edamame.jpg', 'key': 'i', 'origWidth': 409, 'origHeight': 410, 'width': 409, 'height': 410, 'widthPercent': 0.45, 'rescaleHeight': False, 'trialN': 52, 'loaded': True, 'loadedTime': 2896.5999999940395, 'positionName': 'RIGHT', 'positionCoords': [998.4, 335], 'bid': 1.29}]",84563.0,1669829501843,hashbrowns,edamame,1.28,1.29,0.010000000000000009,edamame,1482.4000000059605,1483,1482.7000000178814,True,i,86555.40000000596,1992.4000000059605,1669829503835,1992,HRV,HRV_0092,2022-11-30 17:35:58
53,"[{'imgObject': {}, 'id': 'orange slices', 'src': '/static/foodstim60/orange slices.jpg', 'key': 'u', 'origWidth': 409, 'origHeight': 410, 'width': 409, 'height': 410, 'widthPercent': 0.45, 'rescaleHeight': False, 'trialN': 53, 'loaded': True, 'loadedTime': 2774.300000011921, 'positionName': 'LEFT', 'positionCoords': [512.6, 335], 'bid': 1.3}, {'imgObject': {}, 'id': 'turkey sandwich', 'src': '/static/foodstim60/turkey sandwich.jpg', 'key': 'i', 'origWidth': 409, 'origHeight': 409, 'width': 409, 'height': 409, 'widthPercent': 0.45, 'rescaleHeight': False, 'trialN': 53, 'loaded': True, 'loadedTime': 2481.800000011921, 'positionName': 'RIGHT', 'positionCoords': [998.4, 335.5], 'bid': 1.32}]",86555.59999999404,1669829503836,orange slices,turkey sandwich,1.3,1.32,0.020000000000000018,orange slices,667.8000000119209,668,668.1000000238419,True,u,87738.59999999404,1183.0,1669829505019,1183,HRV,HRV_0092,2022-11-30 17:35:58
54,"[{'imgObject': {}, 'id': 'omelette', 'src': '/static/foodstim60/omelette.jpg', 'key': 'u', 'origWidth': 410, 'origHeight': 409, 'width': 410, 'height': 409, 'widthPercent': 0.45, 'rescaleHeight': False, 'trialN': 54, 'loaded': True, 'loadedTime': 2314, 'positionName': 'LEFT', 'positionCoords': [511.6, 335.5], 'bid': 1.25}, {'imgObject': {}, 'id': 'olives', 'src': '/static/foodstim60/olives.jpg', 'key': 'i', 'origWidth': 410, 'origHeight': 410, 'width': 410, 'height': 410, 'widthPercent': 0.45, 'rescaleHeight': False, 'trialN': 54, 'loaded': True, 'loadedTime': 2678.9000000059605, 'positionName': 'RIGHT', 'positionCoords': [998.4, 335], 'bid': 0.36}]",87738.90000000596,1669829505019,omelette,olives,1.25,0.36,-0.89,omelette,885.1999999880791,885,885.5,True,u,89135.09999999404,1396.199999988079,1669829506415,1396,HRV,HRV_0092,2022-11-30 17:35:58
55,"[{'imgObject': {}, 'id': 'corn cob', 'src': '/static/foodstim60/corn cob.jpg', 'key': 'u', 'origWidth': 411, 'origHeight': 411, 'width': 411, 'height': 411, 'widthPercent': 0.45, 'rescaleHeight': False, 'trialN': 55, 'loaded': True, 'loadedTime': 2267.5999999940395, 'positionName': 'LEFT', 'positionCoords': [510.6, 334.5], 'bid': 1.36}, {'imgObject': {}, 'id': 'mashed potato', 'src': '/static/foodstim60/mashed potato.jpg', 'key': 'i', 'origWidth': 409, 'origHeight': 409, 'width': 409, 'height': 409, 'widthPercent': 0.45, 'rescaleHeight': False, 'trialN': 55, 'loaded': True, 'loadedTime': 2938.2000000178814, 'positionName': 'RIGHT', 'positionCoords': [998.4, 335.5], 'bid': 1.46}]",89135.40000000596,1669829506415,corn cob,mashed potato,1.36,1.46,0.09999999999999987,corn cob,2703.0,2704,2703.5999999940395,True,u,92342.70000001788,3207.300000011921,1669829509623,3208,HRV,HRV_0092,2022-11-30 17:35:58
56,"[{'imgObject': {}, 'id': 'chickenfingers', 'src': '/static/foodstim60/chickenfingers.jpg', 'key': 'u', 'origWidth': 410, 'origHeight': 410, 'width': 410, 'height': 410, 'widthPercent': 0.45, 'rescaleHeight': False, 'trialN': 56, 'loaded': True, 'loadedTime': 2939.7000000178814, 'positionName': 'LEFT', 'positionCoords': [511.6, 335], 'bid': 1.57}, {'imgObject': {}, 'id': 'cocktailshrimp', 'src': '/static/foodstim60/cocktailshrimp.jpg', 'key': 'i', 'origWidth': 410, 'origHeight': 410, 'width': 410, 'height': 410, 'widthPercent': 0.45, 'rescaleHeight': False, 'trialN': 56, 'loaded': True, 'loadedTime': 2945.4000000059605, 'positionName': 'RIGHT', 'positionCoords': [998.4, 335], 'bid': 1.67}]",92342.90000000596,1669829509623,chickenfingers,cocktailshrimp,1.57,1.67,0.09999999999999987,cocktailshrimp,1203.4000000059605,1204,1203.800000011921,True,i,94058.09999999404,1715.199999988079,1669829511338,1715,HRV,HRV_0092,2022-11-30 17:35:58
57,"[{'imgObject': {}, 'id': 'rigatoni and sauce', 'src': '/static/foodstim60/rigatoni and sauce.jpg', 'key': 'u', 'origWidth': 410, 'origHeight': 411, 'width': 410, 'height': 411, 'widthPercent': 0.45, 'rescaleHeight': False, 'trialN': 57, 'loaded': True, 'loadedTime': 2531.800000011921, 'positionName': 'LEFT', 'positionCoords': [511.6, 334.5], 'bid': 1.46}, {'imgObject': {}, 'id': 'blueberries', 'src': '/static/foodstim60/blueberries.jpg', 'key': 'i', 'origWidth': 411, 'origHeight': 411, 'width': 411, 'height': 411, 'widthPercent': 0.45, 'rescaleHeight': False, 'trialN': 57, 'loaded': True, 'loadedTime': 2523.0999999940395, 'positionName': 'RIGHT', 'positionCoords': [998.4, 334.5], 'bid': 1.64}]",94058.30000001192,1669829511338,rigatoni and sauce,blueberries,1.46,1.64,0.17999999999999994,blueberries,767.7999999821186,768,768.0999999940395,True,i,95334.40000000596,1276.0999999940395,1669829512614,1276,HRV,HRV_0092,2022-11-30 17:35:58
58,"[{'imgObject': {}, 'id': 'edamame', 'src': '/static/foodstim60/edamame.jpg', 'key': 'u', 'origWidth': 409, 'origHeight': 410, 'width': 409, 'height': 410, 'widthPercent': 0.45, 'rescaleHeight': False, 'trialN': 58, 'loaded': True, 'loadedTime': 2896.800000011921, 'positionName': 'LEFT', 'positionCoords': [512.6, 335], 'bid': 1.29}, {'imgObject': {}, 'id': 'eggs', 'src': '/static/foodstim60/eggs.jpg', 'key': 'i', 'origWidth': 409, 'origHeight': 409, 'width': 409, 'height': 409, 'widthPercent': 0.45, 'rescaleHeight': False, 'trialN': 58, 'loaded': True, 'loadedTime': 2398, 'positionName': 'RIGHT', 'positionCoords': [998.4, 335.5], 'bid': 1}]",95334.59999999404,1669829512615,edamame,eggs,1.29,1.0,-0.29000000000000004,edamame,1024.6000000238419,1025,1024.800000011921,True,u,96862.0,1527.4000000059605,1669829514142,1527,HRV,HRV_0092,2022-11-30 17:35:58
59,"[{'imgObject': {}, 'id': 'roastedpotatoes', 'src': '/static/foodstim60/roastedpotatoes.jpg', 'key': 'u', 'origWidth': 409, 'origHeight': 410, 'width': 409, 'height': 410, 'widthPercent': 0.45, 'rescaleHeight': False, 'trialN': 59, 'loaded': True, 'loadedTime': 2868.4000000059605, 'positionName': 'LEFT', 'positionCoords': [512.6, 335], 'bid': 1.08}, {'imgObject': {}, 'id': 'froot loops w milk', 'src': '/static/foodstim60/froot loops w milk.jpg', 'key': 'i', 'origWidth': 410, 'origHeight': 410, 'width': 410, 'height': 410, 'widthPercent': 0.45, 'rescaleHeight': False, 'trialN': 59, 'loaded': True, 'loadedTime': 2542.300000011921, 'positionName': 'RIGHT', 'positionCoords': [998.4, 335], 'bid': 1.5}]",96862.20000001788,1669829514142,roastedpotatoes,froot loops w milk,1.08,1.5,0.41999999999999993,roastedpotatoes,816.0999999940395,817,816.3999999761581,True,u,98184.90000000596,1322.699999988079,1669829515465,1323,HRV,HRV_0092,2022-11-30 17:35:58
60,"[{'imgObject': {}, 'id': 'pear', 'src': '/static/foodstim60/pear.jpg', 'key': 'u', 'origWidth': 411, 'origHeight': 410, 'width': 411, 'height': 410, 'widthPercent': 0.45, 'rescaleHeight': False, 'trialN': 60, 'loaded': True, 'loadedTime': 2556.4000000059605, 'positionName': 'LEFT', 'positionCoords': [510.6, 335], 'bid': 1.51}, {'imgObject': {}, 'id': 'lox', 'src': '/static/foodstim60/lox.jpg', 'key': 'i', 'origWidth': 410, 'origHeight': 411, 'width': 410, 'height': 411, 'widthPercent': 0.45, 'rescaleHeight': False, 'trialN': 60, 'loaded': True, 'loadedTime': 2405.5, 'positionName': 'RIGHT', 'positionCoords': [998.4, 334.5], 'bid': 1.53}]",98185.09999999404,1669829515465,pear,lox,1.51,1.53,0.020000000000000018,pear,1089.2000000178814,1090,1089.6000000238419,True,u,99795.5,1610.4000000059605,1669829517076,1611,HRV,HRV_0092,2022-11-30 17:35:58
61,"[{'imgObject': {}, 'id': 'raspberries', 'src': '/static/foodstim60/raspberries.jpg', 'key': 'u', 'origWidth': 411, 'origHeight': 411, 'width': 411, 'height': 411, 'widthPercent': 0.45, 'rescaleHeight': False, 'trialN': 61, 'loaded': True, 'loadedTime': 2979.4000000059605, 'positionName': 'LEFT', 'positionCoords': [510.6, 334.5], 'bid': 0.81}, {'imgObject': {}, 'id': 'cherries', 'src': '/static/foodstim60/cherries.jpg', 'key': 'i', 'origWidth': 410, 'origHeight': 411, 'width': 410, 'height': 411, 'widthPercent': 0.45, 'rescaleHeight': False, 'trialN': 61, 'loaded': True, 'loadedTime': 2177.0999999940395, 'positionName': 'RIGHT', 'positionCoords': [998.4, 334.5], 'bid': 1.22}]",99795.70000001788,1669829517076,raspberries,cherries,0.81,1.22,0.4099999999999999,cherries,949.0,949,949.5,True,i,101260.0,1464.2999999821186,1669829518540,1464,HRV,HRV_0092,2022-11-30 17:35:58
62,"[{'imgObject': {}, 'id': 'apple slices', 'src': '/static/foodstim60/apple slices.jpg', 'key': 'u', 'origWidth': 409, 'origHeight': 410, 'width': 409, 'height': 410, 'widthPercent': 0.45, 'rescaleHeight': False, 'trialN': 62, 'loaded': True, 'loadedTime': 2572.800000011921, 'positionName': 'LEFT', 'positionCoords': [512.6, 335], 'bid': 0.95}, {'imgObject': {}, 'id': 'eggs', 'src': '/static/foodstim60/eggs.jpg', 'key': 'i', 'origWidth': 409, 'origHeight': 409, 'width': 409, 'height': 409, 'widthPercent': 0.45, 'rescaleHeight': False, 'trialN': 62, 'loaded': True, 'loadedTime': 2395.7000000178814, 'positionName': 'RIGHT', 'positionCoords': [998.4, 335.5], 'bid': 1}]",101260.30000001192,1669829518540,apple slices,eggs,0.95,1.0,0.050000000000000044,apple slices,735.7999999821186,736,736.0999999940395,True,u,102515.80000001192,1255.5,1669829519796,1256,HRV,HRV_0092,2022-11-30 17:35:58
63,"[{'imgObject': {}, 'id': 'mac & cheese', 'src': '/static/foodstim60/mac & cheese.jpg', 'key': 'u', 'origWidth': 410, 'origHeight': 410, 'width': 410, 'height': 410, 'widthPercent': 0.45, 'rescaleHeight': False, 'trialN': 63, 'loaded': True, 'loadedTime': 2982.300000011921, 'positionName': 'LEFT', 'positionCoords': [511.6, 335], 'bid': 1.57}, {'imgObject': {}, 'id': 'steak', 'src': '/static/foodstim60/steak.jpg', 'key': 'i', 'origWidth': 410, 'origHeight': 410, 'width': 410, 'height': 410, 'widthPercent': 0.45, 'rescaleHeight': False, 'trialN': 63, 'loaded': True, 'loadedTime': 2836.0999999940395, 'positionName': 'RIGHT', 'positionCoords': [998.4, 335], 'bid': 1.43}]",102516.0,1669829519796,mac & cheese,steak,1.57,1.43,-0.14000000000000012,steak,830.0999999940395,831,830.4000000059605,True,i,103856.90000000596,1340.9000000059605,1669829521137,1341,HRV,HRV_0092,2022-11-30 17:35:58
64,"[{'imgObject': {}, 'id': 'avocado', 'src': '/static/foodstim60/avocado.jpg', 'key': 'u', 'origWidth': 409, 'origHeight': 409, 'width': 409, 'height': 409, 'widthPercent': 0.45, 'rescaleHeight': False, 'trialN': 64, 'loaded': True, 'loadedTime': 2607.4000000059605, 'positionName': 'LEFT', 'positionCoords': [512.6, 335.5], 'bid': 1.84}, {'imgObject': {}, 'id': 'burger', 'src': '/static/foodstim60/burger.jpg', 'key': 'i', 'origWidth': 409, 'origHeight': 409, 'width': 409, 'height': 409, 'widthPercent': 0.45, 'rescaleHeight': False, 'trialN': 64, 'loaded': True, 'loadedTime': 2375.300000011921, 'positionName': 'RIGHT', 'positionCoords': [998.4, 335.5], 'bid': 1.91}]",103857.09999999404,1669829521137,avocado,burger,1.84,1.91,0.06999999999999984,avocado,778.5,779,779.0,True,u,105146.59999999404,1289.5,1669829522427,1290,HRV,HRV_0092,2022-11-30 17:35:58
65,"[{'imgObject': {}, 'id': 'tacos', 'src': '/static/foodstim60/tacos.jpg', 'key': 'u', 'origWidth': 411, 'origHeight': 411, 'width': 411, 'height': 411, 'widthPercent': 0.45, 'rescaleHeight': False, 'trialN': 65, 'loaded': True, 'loadedTime': 2543.9000000059605, 'positionName': 'LEFT', 'positionCoords': [510.6, 334.5], 'bid': 1.54}, {'imgObject': {}, 'id': 'fried eggs', 'src': '/static/foodstim60/fried eggs.jpg', 'key': 'i', 'origWidth': 410, 'origHeight': 410, 'width': 410, 'height': 410, 'widthPercent': 0.45, 'rescaleHeight': False, 'trialN': 65, 'loaded': True, 'loadedTime': 2984.5, 'positionName': 'RIGHT', 'positionCoords': [998.4, 335], 'bid': 1.42}]",105146.80000001192,1669829522427,tacos,fried eggs,1.54,1.42,-0.1200000000000001,tacos,971.0999999940395,971,971.2999999821186,True,u,106624.80000001192,1478.0,1669829523905,1478,HRV,HRV_0092,2022-11-30 17:35:58
66,"[{'imgObject': {}, 'id': 'omelette', 'src': '/static/foodstim60/omelette.jpg', 'key': 'u', 'origWidth': 410, 'origHeight': 409, 'width': 410, 'height': 409, 'widthPercent': 0.45, 'rescaleHeight': False, 'trialN': 66, 'loaded': True, 'loadedTime': 2315.5, 'positionName': 'LEFT', 'positionCoords': [511.6, 335.5], 'bid': 1.25}, {'imgObject': {}, 'id': 'sushi w_condiments', 'src': '/static/foodstim60/sushi w_condiments.jpg', 'key': 'i', 'origWidth': 410, 'origHeight': 410, 'width': 410, 'height': 410, 'widthPercent': 0.45, 'rescaleHeight': False, 'trialN': 66, 'loaded': True, 'loadedTime': 2777, 'positionName': 'RIGHT', 'positionCoords': [998.4, 335], 'bid': 0.85}]",106625.0,1669829523905,omelette,sushi w_condiments,1.25,0.85,-0.4,sushi w_condiments,881.5,882,881.9000000059605,True,i,108023.0,1398.0,1669829525303,1398,HRV,HRV_0092,2022-11-30 17:35:58
67,"[{'imgObject': {}, 'id': 'salad w chicken', 'src': '/static/foodstim60/salad w chicken.jpg', 'key': 'u', 'origWidth': 411, 'origHeight': 411, 'width': 411, 'height': 411, 'widthPercent': 0.45, 'rescaleHeight': False, 'trialN': 67, 'loaded': True, 'loadedTime': 2393.4000000059605, 'positionName': 'LEFT', 'positionCoords': [510.6, 334.5], 'bid': 1.37}, {'imgObject': {}, 'id': 'Tribe humus pita', 'src': '/static/foodstim60/Tribe humus pita.jpg', 'key': 'i', 'origWidth': 411, 'origHeight': 411, 'width': 411, 'height': 411, 'widthPercent': 0.45, 'rescaleHeight': False, 'trialN': 67, 'loaded': True, 'loadedTime': 2805.7000000178814, 'positionName': 'RIGHT', 'positionCoords': [998.4, 334.5], 'bid': 1.37}]",108023.20000001788,1669829525303,salad w chicken,Tribe humus pita,1.37,1.37,0.0,Tribe humus pita,1903.0,1904,1903.2999999821186,True,i,110429.5,2406.2999999821186,1669829527710,2407,HRV,HRV_0092,2022-11-30 17:35:58
68,"[{'imgObject': {}, 'id': 'mango', 'src': '/static/foodstim60/mango.jpg', 'key': 'u', 'origWidth': 411, 'origHeight': 411, 'width': 411, 'height': 411, 'widthPercent': 0.45, 'rescaleHeight': False, 'trialN': 68, 'loaded': True, 'loadedTime': 2623.9000000059605, 'positionName': 'LEFT', 'positionCoords': [510.6, 334.5], 'bid': 1.36}, {'imgObject': {}, 'id': 'roastedpotatoes', 'src': '/static/foodstim60/roastedpotatoes.jpg', 'key': 'i', 'origWidth': 409, 'origHeight': 410, 'width': 409, 'height': 410, 'widthPercent': 0.45, 'rescaleHeight': False, 'trialN': 68, 'loaded': True, 'loadedTime': 2868.5999999940395, 'positionName': 'RIGHT', 'positionCoords': [998.4, 335], 'bid': 1.08}]",110429.70000001788,1669829527710,mango,roastedpotatoes,1.36,1.08,-0.28,mango,905.6999999880791,906,905.8999999761581,True,u,111837.0,1407.2999999821186,1669829529117,1407,HRV,HRV_0092,2022-11-30 17:35:58
69,"[{'imgObject': {}, 'id': 'hotdog w must', 'src': '/static/foodstim60/hotdog w must.jpg', 'key': 'u', 'origWidth': 409, 'origHeight': 409, 'width': 409, 'height': 409, 'widthPercent': 0.45, 'rescaleHeight': False, 'trialN': 69, 'loaded': True, 'loadedTime': 2604.800000011921, 'positionName': 'LEFT', 'positionCoords': [512.6, 335.5], 'bid': 1.42}, {'imgObject': {}, 'id': 'granola w milk', 'src': '/static/foodstim60/granola w milk.jpg', 'key': 'i', 'origWidth': 410, 'origHeight': 410, 'width': 410, 'height': 410, 'widthPercent': 0.45, 'rescaleHeight': False, 'trialN': 69, 'loaded': True, 'loadedTime': 2276.0999999940395, 'positionName': 'RIGHT', 'positionCoords': [998.4, 335], 'bid': 0.43}]",111837.20000001788,1669829529117,hotdog w must,granola w milk,1.42,0.43,-0.99,granola w milk,1016.1999999880791,1017,1016.5999999940395,True,i,113364.70000001788,1527.5,1669829530645,1528,HRV,HRV_0092,2022-11-30 17:35:58
70,"[{'imgObject': {}, 'id': 'bagel and cc', 'src': '/static/foodstim60/bagel and cc.jpg', 'key': 'u', 'origWidth': 410, 'origHeight': 410, 'width': 410, 'height': 410, 'widthPercent': 0.45, 'rescaleHeight': False, 'trialN': 70, 'loaded': True, 'loadedTime': 2682.7000000178814, 'positionName': 'LEFT', 'positionCoords': [511.6, 335], 'bid': 1.42}, {'imgObject': {}, 'id': 'cantaloupe', 'src': '/static/foodstim60/cantaloupe.jpg', 'key': 'i', 'origWidth': 409, 'origHeight': 409, 'width': 409, 'height': 409, 'widthPercent': 0.45, 'rescaleHeight': False, 'trialN': 70, 'loaded': True, 'loadedTime': 2986.9000000059605, 'positionName': 'RIGHT', 'positionCoords': [998.4, 335.5], 'bid': 1.35}]",113364.90000000596,1669829530645,bagel and cc,cantaloupe,1.42,1.35,-0.06999999999999984,cantaloupe,983.0,983,983.1999999880791,True,i,114856.0,1491.0999999940395,1669829532136,1491,HRV,HRV_0092,2022-11-30 17:35:58
71,"[{'imgObject': {}, 'id': 'strawberries', 'src': '/static/foodstim60/strawberries.jpg', 'key': 'u', 'origWidth': 410, 'origHeight': 410, 'width': 410, 'height': 410, 'widthPercent': 0.45, 'rescaleHeight': False, 'trialN': 71, 'loaded': True, 'loadedTime': 2739.800000011921, 'positionName': 'LEFT', 'positionCoords': [511.6, 335], 'bid': 0.36}, {'imgObject': {}, 'id': 'olives', 'src': '/static/foodstim60/olives.jpg', 'key': 'i', 'origWidth': 410, 'origHeight': 410, 'width': 410, 'height': 410, 'widthPercent': 0.45, 'rescaleHeight': False, 'trialN': 71, 'loaded': True, 'loadedTime': 2649.5999999940395, 'positionName': 'RIGHT', 'positionCoords': [998.4, 335], 'bid': 0.36}]",114856.20000001788,1669829532136,strawberries,olives,0.36,0.36,0.0,strawberries,852.8999999761581,853,853.1999999880791,True,u,116216.30000001192,1360.0999999940395,1669829533496,1360,HRV,HRV_0092,2022-11-30 17:35:58
72,"[{'imgObject': {}, 'id': 'granola w milk', 'src': '/static/foodstim60/granola w milk.jpg', 'key': 'u', 'origWidth': 410, 'origHeight': 410, 'width': 410, 'height': 410, 'widthPercent': 0.45, 'rescaleHeight': False, 'trialN': 72, 'loaded': True, 'loadedTime': 2275.2000000178814, 'positionName': 'LEFT', 'positionCoords': [511.6, 335], 'bid': 0.43}, {'imgObject': {}, 'id': 'hashbrowns', 'src': '/static/foodstim60/hashbrowns.jpg', 'key': 'i', 'origWidth': 411, 'origHeight': 410, 'width': 411, 'height': 410, 'widthPercent': 0.45, 'rescaleHeight': False, 'trialN': 72, 'loaded': True, 'loadedTime': 2590.9000000059605, 'positionName': 'RIGHT', 'positionCoords': [998.4, 335], 'bid': 1.28}]",116216.59999999404,1669829533497,granola w milk,hashbrowns,0.43,1.28,0.8500000000000001,hashbrowns,868.0,868,868.2000000178814,True,i,117589.70000001788,1373.1000000238419,1669829534870,1373,HRV,HRV_0092,2022-11-30 17:35:58
73,"[{'imgObject': {}, 'id': 'chicken nuggets2', 'src': '/static/foodstim60/chicken nuggets2.jpg', 'key': 'u', 'origWidth': 410, 'origHeight': 409, 'width': 410, 'height': 409, 'widthPercent': 0.45, 'rescaleHeight': False, 'trialN': 73, 'loaded': True, 'loadedTime': 2988.5, 'positionName': 'LEFT', 'positionCoords': [511.6, 335.5], 'bid': 1.33}, {'imgObject': {}, 'id': 'mango', 'src': '/static/foodstim60/mango.jpg', 'key': 'i', 'origWidth': 411, 'origHeight': 411, 'width': 411, 'height': 411, 'widthPercent': 0.45, 'rescaleHeight': False, 'trialN': 73, 'loaded': True, 'loadedTime': 2621.0999999940395, 'positionName': 'RIGHT', 'positionCoords': [998.4, 334.5], 'bid': 1.36}]",117589.80000001192,1669829534870,chicken nuggets2,mango,1.33,1.36,0.030000000000000027,mango,1384.699999988079,1385,1384.9000000059605,True,i,119487.90000000596,1898.0999999940395,1669829536768,1898,HRV,HRV_0092,2022-11-30 17:35:58
74,"[{'imgObject': {}, 'id': 'mac & cheese', 'src': '/static/foodstim60/mac & cheese.jpg', 'key': 'u', 'origWidth': 410, 'origHeight': 410, 'width': 410, 'height': 410, 'widthPercent': 0.45, 'rescaleHeight': False, 'trialN': 74, 'loaded': True, 'loadedTime': 2980.2000000178814, 'positionName': 'LEFT', 'positionCoords': [511.6, 335], 'bid': 1.57}, {'imgObject': {}, 'id': 'burger', 'src': '/static/foodstim60/burger.jpg', 'key': 'i', 'origWidth': 409, 'origHeight': 409, 'width': 409, 'height': 409, 'widthPercent': 0.45, 'rescaleHeight': False, 'trialN': 74, 'loaded': True, 'loadedTime': 2374.800000011921, 'positionName': 'RIGHT', 'positionCoords': [998.4, 335.5], 'bid': 1.91}]",119488.09999999404,1669829536768,mac & cheese,burger,1.57,1.91,0.33999999999999986,burger,1358.0,1359,1358.300000011921,True,i,121358.59999999404,1870.5,1669829538639,1871,HRV,HRV_0092,2022-11-30 17:35:58
75,"[{'imgObject': {}, 'id': 'orange slices', 'src': '/static/foodstim60/orange slices.jpg', 'key': 'u', 'origWidth': 409, 'origHeight': 410, 'width': 409, 'height': 410, 'widthPercent': 0.45, 'rescaleHeight': False, 'trialN': 75, 'loaded': True, 'loadedTime': 2774.5999999940395, 'positionName': 'LEFT', 'positionCoords': [512.6, 335], 'bid': 1.3}, {'imgObject': {}, 'id': 'burrito', 'src': '/static/foodstim60/burrito.jpg', 'key': 'i', 'origWidth': 410, 'origHeight': 410, 'width': 410, 'height': 410, 'widthPercent': 0.45, 'rescaleHeight': False, 'trialN': 75, 'loaded': True, 'loadedTime': 2598.4000000059605, 'positionName': 'RIGHT', 'positionCoords': [998.4, 335], 'bid': 1.29}]",121359.0,1669829538639,orange slices,burrito,1.3,1.29,-0.010000000000000009,orange slices,686.3000000119209,687,686.7000000178814,True,u,122557.0,1198.0,1669829539837,1198,HRV,HRV_0092,2022-11-30 17:35:58
76,"[{'imgObject': {}, 'id': 'rigatoni and sauce', 'src': '/static/foodstim60/rigatoni and sauce.jpg', 'key': 'u', 'origWidth': 410, 'origHeight': 411, 'width': 410, 'height': 411, 'widthPercent': 0.45, 'rescaleHeight': False, 'trialN': 76, 'loaded': True, 'loadedTime': 2525.5, 'positionName': 'LEFT', 'positionCoords': [511.6, 334.5], 'bid': 1.46}, {'imgObject': {}, 'id': 'apple slices', 'src': '/static/foodstim60/apple slices.jpg', 'key': 'i', 'origWidth': 409, 'origHeight': 410, 'width': 409, 'height': 410, 'widthPercent': 0.45, 'rescaleHeight': False, 'trialN': 76, 'loaded': True, 'loadedTime': 2572.5, 'positionName': 'RIGHT', 'positionCoords': [998.4, 335], 'bid': 0.95}]",122557.20000001788,1669829539837,rigatoni and sauce,apple slices,1.46,0.95,-0.51,apple slices,671.2999999821186,672,671.5999999940395,True,i,123745.09999999404,1187.8999999761581,1669829541025,1188,HRV,HRV_0092,2022-11-30 17:35:58
77,"[{'imgObject': {}, 'id': 'Grapes', 'src': '/static/foodstim60/Grapes.jpg', 'key': 'u', 'origWidth': 411, 'origHeight': 411, 'width': 411, 'height': 411, 'widthPercent': 0.45, 'rescaleHeight': False, 'trialN': 77, 'loaded': True, 'loadedTime': 2494.4000000059605, 'positionName': 'LEFT', 'positionCoords': [510.6, 334.5], 'bid': 1.68}, {'imgObject': {}, 'id': 'mac & cheese', 'src': '/static/foodstim60/mac & cheese.jpg', 'key': 'i', 'origWidth': 410, 'origHeight': 410, 'width': 410, 'height': 410, 'widthPercent': 0.45, 'rescaleHeight': False, 'trialN': 77, 'loaded': True, 'loadedTime': 2982.7000000178814, 'positionName': 'RIGHT', 'positionCoords': [998.4, 335], 'bid': 1.57}]",123745.30000001192,1669829541025,Grapes,mac & cheese,1.68,1.57,-0.10999999999999988,Grapes,1311.699999988079,1312,1312.0999999940395,True,u,125568.40000000596,1823.0999999940395,1669829542848,1823,HRV,HRV_0092,2022-11-30 17:35:58
78,"[{'imgObject': {}, 'id': 'salmon', 'src': '/static/foodstim60/salmon.jpg', 'key': 'u', 'origWidth': 410, 'origHeight': 409, 'width': 410, 'height': 409, 'widthPercent': 0.45, 'rescaleHeight': False, 'trialN': 78, 'loaded': True, 'loadedTime': 2317.300000011921, 'positionName': 'LEFT', 'positionCoords': [511.6, 335.5], 'bid': 1.58}, {'imgObject': {}, 'id': 'eggsalad', 'src': '/static/foodstim60/eggsalad.jpg', 'key': 'i', 'origWidth': 410, 'origHeight': 409, 'width': 410, 'height': 409, 'widthPercent': 0.45, 'rescaleHeight': False, 'trialN': 78, 'loaded': True, 'loadedTime': 2578.7000000178814, 'positionName': 'RIGHT', 'positionCoords': [998.4, 335.5], 'bid': 1.58}]",125568.59999999404,1669829542849,salmon,eggsalad,1.58,1.58,0.0,eggsalad,593.8000000119209,594,594.1000000238419,True,i,126680.20000001788,1111.6000000238419,1669829543960,1111,HRV,HRV_0092,2022-11-30 17:35:58
79,"[{'imgObject': {}, 'id': 'shreddedwheatwithmilk', 'src': '/static/foodstim60/shreddedwheatwithmilk.jpg', 'key': 'u', 'origWidth': 410, 'origHeight': 410, 'width': 410, 'height': 410, 'widthPercent': 0.45, 'rescaleHeight': False, 'trialN': 79, 'loaded': True, 'loadedTime': 2308.5, 'positionName': 'LEFT', 'positionCoords': [511.6, 335], 'bid': 1.08}, {'imgObject': {}, 'id': 'raisin bran w milk', 'src': '/static/foodstim60/raisin bran w milk.jpg', 'key': 'i', 'origWidth': 411, 'origHeight': 411, 'width': 411, 'height': 411, 'widthPercent': 0.45, 'rescaleHeight': False, 'trialN': 79, 'loaded': True, 'loadedTime': 2902.9000000059605, 'positionName': 'RIGHT', 'positionCoords': [998.4, 334.5], 'bid': 0.43}]",126680.30000001192,1669829543960,shreddedwheatwithmilk,raisin bran w milk,1.08,0.43,-0.6500000000000001,raisin bran w milk,1028.4000000059605,1029,1028.699999988079,True,i,128216.70000001788,1536.4000000059605,1669829545497,1537,HRV,HRV_0092,2022-11-30 17:35:58
80,"[{'imgObject': {}, 'id': 'bagel plain', 'src': '/static/foodstim60/bagel plain.jpg', 'key': 'u', 'origWidth': 410, 'origHeight': 410, 'width': 410, 'height': 410, 'widthPercent': 0.45, 'rescaleHeight': False, 'trialN': 80, 'loaded': True, 'loadedTime': 2586.5, 'positionName': 'LEFT', 'positionCoords': [511.6, 335], 'bid': 1.43}, {'imgObject': {}, 'id': 'raspberries', 'src': '/static/foodstim60/raspberries.jpg', 'key': 'i', 'origWidth': 411, 'origHeight': 411, 'width': 411, 'height': 411, 'widthPercent': 0.45, 'rescaleHeight': False, 'trialN': 80, 'loaded': True, 'loadedTime': 2979.5999999940395, 'positionName': 'RIGHT', 'positionCoords': [998.4, 334.5], 'bid': 0.81}]",128216.80000001192,1669829545497,bagel plain,raspberries,1.43,0.81,-0.6199999999999999,raspberries,728.5999999940395,729,729.0,True,i,129465.0,1248.199999988079,1669829546745,1248,HRV,HRV_0092,2022-11-30 17:35:58
81,"[{'imgObject': {}, 'id': 'granola w milk', 'src': '/static/foodstim60/granola w milk.jpg', 'key': 'u', 'origWidth': 410, 'origHeight': 410, 'width': 410, 'height': 410, 'widthPercent': 0.45, 'rescaleHeight': False, 'trialN': 81, 'loaded': True, 'loadedTime': 2275.7000000178814, 'positionName': 'LEFT', 'positionCoords': [511.6, 335], 'bid': 0.43}, {'imgObject': {}, 'id': 'raisin bran w milk', 'src': '/static/foodstim60/raisin bran w milk.jpg', 'key': 'i', 'origWidth': 411, 'origHeight': 411, 'width': 411, 'height': 411, 'widthPercent': 0.45, 'rescaleHeight': False, 'trialN': 81, 'loaded': True, 'loadedTime': 2902.7000000178814, 'positionName': 'RIGHT', 'positionCoords': [998.4, 334.5], 'bid': 0.43}]",129465.09999999404,1669829546745,granola w milk,raisin bran w milk,0.43,0.43,0.0,granola w milk,1209.7000000178814,1210,1210.1000000238419,True,u,131192.40000000596,1727.300000011921,1669829548472,1727,HRV,HRV_0092,2022-11-30 17:35:58
82,"[{'imgObject': {}, 'id': 'rigatoni', 'src': '/static/foodstim60/rigatoni.jpg', 'key': 'u', 'origWidth': 411, 'origHeight': 411, 'width': 411, 'height': 411, 'widthPercent': 0.45, 'rescaleHeight': False, 'trialN': 82, 'loaded': True, 'loadedTime': 2092.0999999940395, 'positionName': 'LEFT', 'positionCoords': [510.6, 334.5], 'bid': 1.1}, {'imgObject': {}, 'id': 'Tribe humus pita', 'src': '/static/foodstim60/Tribe humus pita.jpg', 'key': 'i', 'origWidth': 411, 'origHeight': 411, 'width': 411, 'height': 411, 'widthPercent': 0.45, 'rescaleHeight': False, 'trialN': 82, 'loaded': True, 'loadedTime': 2805.300000011921, 'positionName': 'RIGHT', 'positionCoords': [998.4, 334.5], 'bid': 1.37}]",131192.59999999404,1669829548472,rigatoni,Tribe humus pita,1.1,1.37,0.27,Tribe humus pita,815.9000000059605,817,816.2000000178814,True,i,132526.09999999404,1333.5,1669829549806,1334,HRV,HRV_0092,2022-11-30 17:35:58
83,"[{'imgObject': {}, 'id': 'raspberries', 'src': '/static/foodstim60/raspberries.jpg', 'key': 'u', 'origWidth': 411, 'origHeight': 411, 'width': 411, 'height': 411, 'widthPercent': 0.45, 'rescaleHeight': False, 'trialN': 83, 'loaded': True, 'loadedTime': 2979.0999999940395, 'positionName': 'LEFT', 'positionCoords': [510.6, 334.5], 'bid': 0.81}, {'imgObject': {}, 'id': 'roastedpotatoes', 'src': '/static/foodstim60/roastedpotatoes.jpg', 'key': 'i', 'origWidth': 409, 'origHeight': 410, 'width': 409, 'height': 410, 'widthPercent': 0.45, 'rescaleHeight': False, 'trialN': 83, 'loaded': True, 'loadedTime': 2866.5999999940395, 'positionName': 'RIGHT', 'positionCoords': [998.4, 335], 'bid': 1.08}]",132526.09999999404,1669829549806,raspberries,roastedpotatoes,0.81,1.08,0.27,raspberries,655.5,656,655.7000000178814,True,u,133698.09999999404,1172.0,1669829550978,1172,HRV,HRV_0092,2022-11-30 17:35:58
84,"[{'imgObject': {}, 'id': 'roastedpotatoes', 'src': '/static/foodstim60/roastedpotatoes.jpg', 'key': 'u', 'origWidth': 409, 'origHeight': 410, 'width': 409, 'height': 410, 'widthPercent': 0.45, 'rescaleHeight': False, 'trialN': 84, 'loaded': True, 'loadedTime': 2869, 'positionName': 'LEFT', 'positionCoords': [512.6, 335], 'bid': 1.08}, {'imgObject': {}, 'id': 'ice cream sundae 002', 'src': '/static/foodstim60/ice cream sundae 002.jpg', 'key': 'i', 'origWidth': 409, 'origHeight': 409, 'width': 409, 'height': 409, 'widthPercent': 0.45, 'rescaleHeight': False, 'trialN': 84, 'loaded': True, 'loadedTime': 2990.5, 'positionName': 'RIGHT', 'positionCoords': [998.4, 335.5], 'bid': 1.01}]",133698.30000001192,1669829550978,roastedpotatoes,ice cream sundae 002,1.08,1.01,-0.07000000000000006,roastedpotatoes,732.5,733,732.9000000059605,True,u,134947.59999999404,1249.2999999821186,1669829552228,1250,HRV,HRV_0092,2022-11-30 17:35:58
85,"[{'imgObject': {}, 'id': 'grilled chicken strips', 'src': '/static/foodstim60/grilled chicken strips.jpg', 'key': 'u', 'origWidth': 410, 'origHeight': 411, 'width': 410, 'height': 411, 'widthPercent': 0.45, 'rescaleHeight': False, 'trialN': 85, 'loaded': True, 'loadedTime': 2401.7000000178814, 'positionName': 'LEFT', 'positionCoords': [511.6, 334.5], 'bid': 1.47}, {'imgObject': {}, 'id': 'banana', 'src': '/static/foodstim60/banana.jpg', 'key': 'i', 'origWidth': 410, 'origHeight': 410, 'width': 410, 'height': 410, 'widthPercent': 0.45, 'rescaleHeight': False, 'trialN': 85, 'loaded': True, 'loadedTime': 2866.4000000059605, 'positionName': 'RIGHT', 'positionCoords': [998.4, 335], 'bid': 1.51}]",134947.80000001192,1669829552228,grilled chicken strips,banana,1.47,1.51,0.040000000000000036,grilled chicken strips,866.0999999940395,866,866.5999999940395,True,u,136329.0,1381.199999988079,1669829553609,1381,HRV,HRV_0092,2022-11-30 17:35:58
86,"[{'imgObject': {}, 'id': 'hotdog w must', 'src': '/static/foodstim60/hotdog w must.jpg', 'key': 'u', 'origWidth': 409, 'origHeight': 409, 'width': 409, 'height': 409, 'widthPercent': 0.45, 'rescaleHeight': False, 'trialN': 86, 'loaded': True, 'loadedTime': 2603, 'positionName': 'LEFT', 'positionCoords': [512.6, 335.5], 'bid': 1.42}, {'imgObject': {}, 'id': 'fried eggs', 'src': '/static/foodstim60/fried eggs.jpg', 'key': 'i', 'origWidth': 410, 'origHeight': 410, 'width': 410, 'height': 410, 'widthPercent': 0.45, 'rescaleHeight': False, 'trialN': 86, 'loaded': True, 'loadedTime': 2984.9000000059605, 'positionName': 'RIGHT', 'positionCoords': [998.4, 335], 'bid': 1.42}]",136329.20000001788,1669829553609,hotdog w must,fried eggs,1.42,1.42,0.0,fried eggs,771.5,772,772.0,True,i,137608.90000000596,1279.699999988079,1669829554889,1280,HRV,HRV_0092,2022-11-30 17:35:58
87,"[{'imgObject': {}, 'id': 'cherry tomato', 'src': '/static/foodstim60/cherry tomato.jpg', 'key': 'u', 'origWidth': 410, 'origHeight': 410, 'width': 410, 'height': 410, 'widthPercent': 0.45, 'rescaleHeight': False, 'trialN': 87, 'loaded': True, 'loadedTime': 2295.5999999940395, 'positionName': 'LEFT', 'positionCoords': [511.6, 335], 'bid': 1.5}, {'imgObject': {}, 'id': 'yogurt no spoon', 'src': '/static/foodstim60/yogurt no spoon.jpg', 'key': 'i', 'origWidth': 411, 'origHeight': 410, 'width': 411, 'height': 410, 'widthPercent': 0.45, 'rescaleHeight': False, 'trialN': 87, 'loaded': True, 'loadedTime': 2771.9000000059605, 'positionName': 'RIGHT', 'positionCoords': [998.4, 335], 'bid': 1.5}]",137609.09999999404,1669829554889,cherry tomato,yogurt no spoon,1.5,1.5,0.0,cherry tomato,887.1000000238419,887,887.5,True,u,139006.80000001192,1397.7000000178814,1669829556287,1398,HRV,HRV_0092,2022-11-30 17:35:58
88,"[{'imgObject': {}, 'id': 'sushi w_condiments', 'src': '/static/foodstim60/sushi w_condiments.jpg', 'key': 'u', 'origWidth': 410, 'origHeight': 410, 'width': 410, 'height': 410, 'widthPercent': 0.45, 'rescaleHeight': False, 'trialN': 88, 'loaded': True, 'loadedTime': 2777.300000011921, 'positionName': 'LEFT', 'positionCoords': [511.6, 335], 'bid': 0.85}, {'imgObject': {}, 'id': 'luckycharms', 'src': '/static/foodstim60/luckycharms.jpg', 'key': 'i', 'origWidth': 410, 'origHeight': 409, 'width': 410, 'height': 409, 'widthPercent': 0.45, 'rescaleHeight': False, 'trialN': 88, 'loaded': True, 'loadedTime': 2347.5, 'positionName': 'RIGHT', 'positionCoords': [998.4, 335.5], 'bid': 1.46}]",139007.0,1669829556287,sushi w_condiments,luckycharms,0.85,1.46,0.61,sushi w_condiments,830.3000000119209,831,830.5999999940395,True,u,140346.80000001192,1339.800000011921,1669829557627,1340,HRV,HRV_0092,2022-11-30 17:35:58
89,"[{'imgObject': {}, 'id': 'mashed potato', 'src': '/static/foodstim60/mashed potato.jpg', 'key': 'u', 'origWidth': 409, 'origHeight': 409, 'width': 409, 'height': 409, 'widthPercent': 0.45, 'rescaleHeight': False, 'trialN': 89, 'loaded': True, 'loadedTime': 2938.7000000178814, 'positionName': 'LEFT', 'positionCoords': [512.6, 335.5], 'bid': 1.46}, {'imgObject': {}, 'id': 'yogurt no spoon', 'src': '/static/foodstim60/yogurt no spoon.jpg', 'key': 'i', 'origWidth': 411, 'origHeight': 410, 'width': 411, 'height': 410, 'widthPercent': 0.45, 'rescaleHeight': False, 'trialN': 89, 'loaded': True, 'loadedTime': 2744.5, 'positionName': 'RIGHT', 'positionCoords': [998.4, 335], 'bid': 1.5}]",140347.0,1669829557627,mashed potato,yogurt no spoon,1.46,1.5,0.040000000000000036,yogurt no spoon,1327.2000000178814,1327,1327.5,True,i,142182.70000001788,1835.7000000178814,1669829559463,1836,HRV,HRV_0092,2022-11-30 17:35:58
90,"[{'imgObject': {}, 'id': 'popsicles', 'src': '/static/foodstim60/popsicles.jpg', 'key': 'u', 'origWidth': 410, 'origHeight': 410, 'width': 410, 'height': 410, 'widthPercent': 0.45, 'rescaleHeight': False, 'trialN': 90, 'loaded': True, 'loadedTime': 3025.300000011921, 'positionName': 'LEFT', 'positionCoords': [511.6, 335], 'bid': 1.47}, {'imgObject': {}, 'id': 'cherry tomato', 'src': '/static/foodstim60/cherry tomato.jpg', 'key': 'i', 'origWidth': 410, 'origHeight': 410, 'width': 410, 'height': 410, 'widthPercent': 0.45, 'rescaleHeight': False, 'trialN': 90, 'loaded': True, 'loadedTime': 2301.300000011921, 'positionName': 'RIGHT', 'positionCoords': [998.4, 335], 'bid': 1.5}]",181116.40000000596,1669829598396,popsicles,cherry tomato,1.47,1.5,0.030000000000000027,cherry tomato,1968.699999988079,1970,1968.9000000059605,True,i,183589.59999999404,2473.199999988079,1669829600870,2474,HRV,HRV_0092,2022-11-30 17:35:58
91,"[{'imgObject': {}, 'id': 'raspberries', 'src': '/static/foodstim60/raspberries.jpg', 'key': 'u', 'origWidth': 411, 'origHeight': 411, 'width': 411, 'height': 411, 'widthPercent': 0.45, 'rescaleHeight': False, 'trialN': 91, 'loaded': True, 'loadedTime': 2979.7000000178814, 'positionName': 'LEFT', 'positionCoords': [510.6, 334.5], 'bid': 0.81}, {'imgObject': {}, 'id': 'seaweed', 'src': '/static/foodstim60/seaweed.jpg', 'key': 'i', 'origWidth': 410, 'origHeight': 410, 'width': 410, 'height': 410, 'widthPercent': 0.45, 'rescaleHeight': False, 'trialN': 91, 'loaded': True, 'loadedTime': 2552.800000011921, 'positionName': 'RIGHT', 'positionCoords': [998.4, 335], 'bid': 0.61}]",183589.70000001788,1669829600870,raspberries,seaweed,0.81,0.61,-0.20000000000000007,seaweed,950.2999999821186,951,950.5,True,i,185055.0,1465.2999999821186,1669829602336,1466,HRV,HRV_0092,2022-11-30 17:35:58
92,"[{'imgObject': {}, 'id': 'raisin bran w milk', 'src': '/static/foodstim60/raisin bran w milk.jpg', 'key': 'u', 'origWidth': 411, 'origHeight': 411, 'width': 411, 'height': 411, 'widthPercent': 0.45, 'rescaleHeight': False, 'trialN': 92, 'loaded': True, 'loadedTime': 2902.9000000059605, 'positionName': 'LEFT', 'positionCoords': [510.6, 334.5], 'bid': 0.43}, {'imgObject': {}, 'id': 'fried eggs', 'src': '/static/foodstim60/fried eggs.jpg', 'key': 'i', 'origWidth': 410, 'origHeight': 410, 'width': 410, 'height': 410, 'widthPercent': 0.45, 'rescaleHeight': False, 'trialN': 92, 'loaded': True, 'loadedTime': 2984.7000000178814, 'positionName': 'RIGHT', 'positionCoords': [998.4, 335], 'bid': 1.42}]",185055.30000001192,1669829602336,raisin bran w milk,fried eggs,0.43,1.42,0.99,raisin bran w milk,742.6999999880791,743,743.0999999940395,True,u,186309.20000001788,1253.9000000059605,1669829603590,1254,HRV,HRV_0092,2022-11-30 17:35:58
93,"[{'imgObject': {}, 'id': 'mac & cheese', 'src': '/static/foodstim60/mac & cheese.jpg', 'key': 'u', 'origWidth': 410, 'origHeight': 410, 'width': 410, 'height': 410, 'widthPercent': 0.45, 'rescaleHeight': False, 'trialN': 93, 'loaded': True, 'loadedTime': 2982.5999999940395, 'positionName': 'LEFT', 'positionCoords': [511.6, 335], 'bid': 1.57}, {'imgObject': {}, 'id': 'chickenfingers', 'src': '/static/foodstim60/chickenfingers.jpg', 'key': 'i', 'origWidth': 410, 'origHeight': 410, 'width': 410, 'height': 410, 'widthPercent': 0.45, 'rescaleHeight': False, 'trialN': 93, 'loaded': True, 'loadedTime': 2942.0999999940395, 'positionName': 'RIGHT', 'positionCoords': [998.4, 335], 'bid': 1.57}]",186309.5,1669829603590,mac & cheese,chickenfingers,1.57,1.57,0.0,chickenfingers,2121.2000000178814,2121,2121.5,True,i,188944.90000000596,2635.4000000059605,1669829606225,2635,HRV,HRV_0092,2022-11-30 17:35:58
94,"[{'imgObject': {}, 'id': 'Grapes', 'src': '/static/foodstim60/Grapes.jpg', 'key': 'u', 'origWidth': 411, 'origHeight': 411, 'width': 411, 'height': 411, 'widthPercent': 0.45, 'rescaleHeight': False, 'trialN': 94, 'loaded': True, 'loadedTime': 2490.4000000059605, 'positionName': 'LEFT', 'positionCoords': [510.6, 334.5], 'bid': 1.68}, {'imgObject': {}, 'id': 'popsicles', 'src': '/static/foodstim60/popsicles.jpg', 'key': 'i', 'origWidth': 410, 'origHeight': 410, 'width': 410, 'height': 410, 'widthPercent': 0.45, 'rescaleHeight': False, 'trialN': 94, 'loaded': True, 'loadedTime': 3025.5, 'positionName': 'RIGHT', 'positionCoords': [998.4, 335], 'bid': 1.47}]",188945.09999999404,1669829606226,Grapes,popsicles,1.68,1.47,-0.20999999999999996,Grapes,1463.7000000178814,1464,1464.1000000238419,True,u,190922.09999999404,1977.0,1669829608203,1977,HRV,HRV_0092,2022-11-30 17:35:58
95,"[{'imgObject': {}, 'id': 'shreddedwheatwithmilk', 'src': '/static/foodstim60/shreddedwheatwithmilk.jpg', 'key': 'u', 'origWidth': 410, 'origHeight': 410, 'width': 410, 'height': 410, 'widthPercent': 0.45, 'rescaleHeight': False, 'trialN': 95, 'loaded': True, 'loadedTime': 2309.800000011921, 'positionName': 'LEFT', 'positionCoords': [511.6, 335], 'bid': 1.08}, {'imgObject': {}, 'id': 'blackbeanswithrice', 'src': '/static/foodstim60/blackbeanswithrice.jpg', 'key': 'i', 'origWidth': 410, 'origHeight': 410, 'width': 410, 'height': 410, 'widthPercent': 0.45, 'rescaleHeight': False, 'trialN': 95, 'loaded': True, 'loadedTime': 2548.800000011921, 'positionName': 'RIGHT', 'positionCoords': [998.4, 335], 'bid': 1.14}]",190922.30000001192,1669829608203,shreddedwheatwithmilk,blackbeanswithrice,1.08,1.14,0.05999999999999983,blackbeanswithrice,663.0999999940395,663,663.4000000059605,True,i,192104.70000001788,1182.4000000059605,1669829609385,1182,HRV,HRV_0092,2022-11-30 17:35:58
96,"[{'imgObject': {}, 'id': 'mango', 'src': '/static/foodstim60/mango.jpg', 'key': 'u', 'origWidth': 411, 'origHeight': 411, 'width': 411, 'height': 411, 'widthPercent': 0.45, 'rescaleHeight': False, 'trialN': 96, 'loaded': True, 'loadedTime': 2623.7000000178814, 'positionName': 'LEFT', 'positionCoords': [510.6, 334.5], 'bid': 1.36}, {'imgObject': {}, 'id': 'luckycharms', 'src': '/static/foodstim60/luckycharms.jpg', 'key': 'i', 'origWidth': 410, 'origHeight': 409, 'width': 410, 'height': 409, 'widthPercent': 0.45, 'rescaleHeight': False, 'trialN': 96, 'loaded': True, 'loadedTime': 2339.4000000059605, 'positionName': 'RIGHT', 'positionCoords': [998.4, 335.5], 'bid': 1.46}]",192104.90000000596,1669829609385,mango,luckycharms,1.36,1.46,0.09999999999999987,mango,557.5999999940395,558,558.0,True,u,193167.20000001788,1062.300000011921,1669829610448,1063,HRV,HRV_0092,2022-11-30 17:35:58
97,"[{'imgObject': {}, 'id': 'lox', 'src': '/static/foodstim60/lox.jpg', 'key': 'u', 'origWidth': 410, 'origHeight': 411, 'width': 410, 'height': 411, 'widthPercent': 0.45, 'rescaleHeight': False, 'trialN': 97, 'loaded': True, 'loadedTime': 2403.9000000059605, 'positionName': 'LEFT', 'positionCoords': [511.6, 334.5], 'bid': 1.53}, {'imgObject': {}, 'id': 'bagel and cc', 'src': '/static/foodstim60/bagel and cc.jpg', 'key': 'i', 'origWidth': 410, 'origHeight': 410, 'width': 410, 'height': 410, 'widthPercent': 0.45, 'rescaleHeight': False, 'trialN': 97, 'loaded': True, 'loadedTime': 2680.2000000178814, 'positionName': 'RIGHT', 'positionCoords': [998.4, 335], 'bid': 1.42}]",193167.40000000596,1669829610448,lox,bagel and cc,1.53,1.42,-0.1100000000000001,bagel and cc,804.9000000059605,805,805.3000000119209,True,i,194486.40000000596,1319.0,1669829611767,1319,HRV,HRV_0092,2022-11-30 17:35:58
98,"[{'imgObject': {}, 'id': 'kiwi', 'src': '/static/foodstim60/kiwi.jpg', 'key': 'u', 'origWidth': 410, 'origHeight': 410, 'width': 410, 'height': 410, 'widthPercent': 0.45, 'rescaleHeight': False, 'trialN': 98, 'loaded': True, 'loadedTime': 2539.800000011921, 'positionName': 'LEFT', 'positionCoords': [511.6, 335], 'bid': 1.69}, {'imgObject': {}, 'id': 'lox', 'src': '/static/foodstim60/lox.jpg', 'key': 'i', 'origWidth': 410, 'origHeight': 411, 'width': 410, 'height': 411, 'widthPercent': 0.45, 'rescaleHeight': False, 'trialN': 98, 'loaded': True, 'loadedTime': 2406.7000000178814, 'positionName': 'RIGHT', 'positionCoords': [998.4, 334.5], 'bid': 1.53}]",194486.59999999404,1669829611767,kiwi,lox,1.69,1.53,-0.15999999999999992,kiwi,744.6000000238419,745,744.9000000059605,True,u,195739.30000001192,1252.7000000178814,1669829613020,1253,HRV,HRV_0092,2022-11-30 17:35:58
99,"[{'imgObject': {}, 'id': 'cocktailshrimp', 'src': '/static/foodstim60/cocktailshrimp.jpg', 'key': 'u', 'origWidth': 410, 'origHeight': 410, 'width': 410, 'height': 410, 'widthPercent': 0.45, 'rescaleHeight': False, 'trialN': 99, 'loaded': True, 'loadedTime': 2945.5999999940395, 'positionName': 'LEFT', 'positionCoords': [511.6, 335], 'bid': 1.67}, {'imgObject': {}, 'id': 'chicken nuggets2', 'src': '/static/foodstim60/chicken nuggets2.jpg', 'key': 'i', 'origWidth': 410, 'origHeight': 409, 'width': 410, 'height': 409, 'widthPercent': 0.45, 'rescaleHeight': False, 'trialN': 99, 'loaded': True, 'loadedTime': 2987.2000000178814, 'positionName': 'RIGHT', 'positionCoords': [998.4, 335.5], 'bid': 1.33}]",195739.59999999404,1669829613020,cocktailshrimp,chicken nuggets2,1.67,1.33,-0.33999999999999986,cocktailshrimp,1104.7000000178814,1105,1105.0,True,u,197354.80000001192,1615.2000000178814,1669829614635,1615,HRV,HRV_0092,2022-11-30 17:35:58
100,"[{'imgObject': {}, 'id': 'olives', 'src': '/static/foodstim60/olives.jpg', 'key': 'u', 'origWidth': 410, 'origHeight': 410, 'width': 410, 'height': 410, 'widthPercent': 0.45, 'rescaleHeight': False, 'trialN': 100, 'loaded': True, 'loadedTime': 2651.5, 'positionName': 'LEFT', 'positionCoords': [511.6, 335], 'bid': 0.36}, {'imgObject': {}, 'id': 'granola w milk', 'src': '/static/foodstim60/granola w milk.jpg', 'key': 'i', 'origWidth': 410, 'origHeight': 410, 'width': 410, 'height': 410, 'widthPercent': 0.45, 'rescaleHeight': False, 'trialN': 100, 'loaded': True, 'loadedTime': 2276.4000000059605, 'positionName': 'RIGHT', 'positionCoords': [998.4, 335], 'bid': 0.43}]",197355.09999999404,1669829614636,olives,granola w milk,0.36,0.43,0.07,olives,599.8000000119209,600,600.2000000178814,True,u,198463.5,1108.4000000059605,1669829615744,1108,HRV,HRV_0092,2022-11-30 17:35:58
101,"[{'imgObject': {}, 'id': 'salmon', 'src': '/static/foodstim60/salmon.jpg', 'key': 'u', 'origWidth': 410, 'origHeight': 409, 'width': 410, 'height': 409, 'widthPercent': 0.45, 'rescaleHeight': False, 'trialN': 101, 'loaded': True, 'loadedTime': 2320.4000000059605, 'positionName': 'LEFT', 'positionCoords': [511.6, 335.5], 'bid': 1.58}, {'imgObject': {}, 'id': 'mac & cheese', 'src': '/static/foodstim60/mac & cheese.jpg', 'key': 'i', 'origWidth': 410, 'origHeight': 410, 'width': 410, 'height': 410, 'widthPercent': 0.45, 'rescaleHeight': False, 'trialN': 101, 'loaded': True, 'loadedTime': 2982.800000011921, 'positionName': 'RIGHT', 'positionCoords': [998.4, 335], 'bid': 1.57}]",198463.70000001788,1669829615744,salmon,mac & cheese,1.58,1.57,-0.010000000000000009,salmon,857.0999999940395,858,857.3999999761581,True,u,199834.70000001788,1371.0,1669829617115,1371,HRV,HRV_0092,2022-11-30 17:35:58
102,"[{'imgObject': {}, 'id': 'avocado', 'src': '/static/foodstim60/avocado.jpg', 'key': 'u', 'origWidth': 409, 'origHeight': 409, 'width': 409, 'height': 409, 'widthPercent': 0.45, 'rescaleHeight': False, 'trialN': 102, 'loaded': True, 'loadedTime': 2605, 'positionName': 'LEFT', 'positionCoords': [512.6, 335.5], 'bid': 1.84}, {'imgObject': {}, 'id': 'yogurt no spoon', 'src': '/static/foodstim60/yogurt no spoon.jpg', 'key': 'i', 'origWidth': 411, 'origHeight': 410, 'width': 411, 'height': 410, 'widthPercent': 0.45, 'rescaleHeight': False, 'trialN': 102, 'loaded': True, 'loadedTime': 2772.2000000178814, 'positionName': 'RIGHT', 'positionCoords': [998.4, 335], 'bid': 1.5}]",199835.0,1669829617115,avocado,yogurt no spoon,1.84,1.5,-0.3400000000000001,avocado,619.8000000119209,621,620.3000000119209,True,u,200969.30000001192,1134.300000011921,1669829618250,1135,HRV,HRV_0092,2022-11-30 17:35:58
103,"[{'imgObject': {}, 'id': 'turkeysandwich', 'src': '/static/foodstim60/turkeysandwich.jpg', 'key': 'u', 'origWidth': 409, 'origHeight': 409, 'width': 409, 'height': 409, 'widthPercent': 0.45, 'rescaleHeight': False, 'trialN': 103, 'loaded': True, 'loadedTime': 2802.7000000178814, 'positionName': 'LEFT', 'positionCoords': [512.6, 335.5], 'bid': 0.92}, {'imgObject': {}, 'id': 'raspberries', 'src': '/static/foodstim60/raspberries.jpg', 'key': 'i', 'origWidth': 411, 'origHeight': 411, 'width': 411, 'height': 411, 'widthPercent': 0.45, 'rescaleHeight': False, 'trialN': 103, 'loaded': True, 'loadedTime': 2980.0999999940395, 'positionName': 'RIGHT', 'positionCoords': [998.4, 334.5], 'bid': 0.81}]",200969.5,1669829618250,turkeysandwich,raspberries,0.92,0.81,-0.10999999999999999,raspberries,790.0999999940395,790,790.4000000059605,True,i,202274.70000001788,1305.2000000178814,1669829619555,1305,HRV,HRV_0092,2022-11-30 17:35:58
104,"[{'imgObject': {}, 'id': 'chicken nuggets2', 'src': '/static/foodstim60/chicken nuggets2.jpg', 'key': 'u', 'origWidth': 410, 'origHeight': 409, 'width': 410, 'height': 409, 'widthPercent': 0.45, 'rescaleHeight': False, 'trialN': 104, 'loaded': True, 'loadedTime': 2988.800000011921, 'positionName': 'LEFT', 'positionCoords': [511.6, 335.5], 'bid': 1.33}, {'imgObject': {}, 'id': 'cantaloupe', 'src': '/static/foodstim60/cantaloupe.jpg', 'key': 'i', 'origWidth': 409, 'origHeight': 409, 'width': 409, 'height': 409, 'widthPercent': 0.45, 'rescaleHeight': False, 'trialN': 104, 'loaded': True, 'loadedTime': 2986.5, 'positionName': 'RIGHT', 'positionCoords': [998.4, 335.5], 'bid': 1.35}]",202274.80000001192,1669829619555,chicken nuggets2,cantaloupe,1.33,1.35,0.020000000000000018,cantaloupe,804.7999999821186,805,805.0999999940395,True,i,203586.30000001192,1311.5,1669829620867,1312,HRV,HRV_0092,2022-11-30 17:35:58
105,"[{'imgObject': {}, 'id': 'chickenfingers', 'src': '/static/foodstim60/chickenfingers.jpg', 'key': 'u', 'origWidth': 410, 'origHeight': 410, 'width': 410, 'height': 410, 'widthPercent': 0.45, 'rescaleHeight': False, 'trialN': 105, 'loaded': True, 'loadedTime': 2943.0999999940395, 'positionName': 'LEFT', 'positionCoords': [511.6, 335], 'bid': 1.57}, {'imgObject': {}, 'id': 'hotdog w must', 'src': '/static/foodstim60/hotdog w must.jpg', 'key': 'i', 'origWidth': 409, 'origHeight': 409, 'width': 409, 'height': 409, 'widthPercent': 0.45, 'rescaleHeight': False, 'trialN': 105, 'loaded': True, 'loadedTime': 2603.5, 'positionName': 'RIGHT', 'positionCoords': [998.4, 335.5], 'bid': 1.42}]",203586.59999999404,1669829620867,chickenfingers,hotdog w must,1.57,1.42,-0.15000000000000013,chickenfingers,645.5,646,645.9000000059605,True,u,204739.09999999404,1152.5,1669829622020,1153,HRV,HRV_0092,2022-11-30 17:35:58
106,"[{'imgObject': {}, 'id': 'bagel and cc', 'src': '/static/foodstim60/bagel and cc.jpg', 'key': 'u', 'origWidth': 410, 'origHeight': 410, 'width': 410, 'height': 410, 'widthPercent': 0.45, 'rescaleHeight': False, 'trialN': 106, 'loaded': True, 'loadedTime': 2683.2000000178814, 'positionName': 'LEFT', 'positionCoords': [511.6, 335], 'bid': 1.42}, {'imgObject': {}, 'id': 'cheerios', 'src': '/static/foodstim60/cheerios.jpg', 'key': 'i', 'origWidth': 409, 'origHeight': 410, 'width': 409, 'height': 410, 'widthPercent': 0.45, 'rescaleHeight': False, 'trialN': 106, 'loaded': True, 'loadedTime': 2900.4000000059605, 'positionName': 'RIGHT', 'positionCoords': [998.4, 335], 'bid': 1.4}]",204739.40000000596,1669829622020,bagel and cc,cheerios,1.42,1.4,-0.020000000000000018,bagel and cc,675.1999999880791,675,675.5,True,u,205926.59999999404,1187.199999988079,1669829623207,1187,HRV,HRV_0092,2022-11-30 17:35:58
107,"[{'imgObject': {}, 'id': 'popsicles', 'src': '/static/foodstim60/popsicles.jpg', 'key': 'u', 'origWidth': 410, 'origHeight': 410, 'width': 410, 'height': 410, 'widthPercent': 0.45, 'rescaleHeight': False, 'trialN': 107, 'loaded': True, 'loadedTime': 3025.7000000178814, 'positionName': 'LEFT', 'positionCoords': [511.6, 335], 'bid': 1.47}, {'imgObject': {}, 'id': 'eggsalad', 'src': '/static/foodstim60/eggsalad.jpg', 'key': 'i', 'origWidth': 410, 'origHeight': 409, 'width': 410, 'height': 409, 'widthPercent': 0.45, 'rescaleHeight': False, 'trialN': 107, 'loaded': True, 'loadedTime': 2576.0999999940395, 'positionName': 'RIGHT', 'positionCoords': [998.4, 335.5], 'bid': 1.58}]",205926.80000001192,1669829623207,popsicles,eggsalad,1.47,1.58,0.1100000000000001,eggsalad,715.7999999821186,716,716.0,True,i,207154.20000001788,1227.4000000059605,1669829624435,1228,HRV,HRV_0092,2022-11-30 17:35:58
108,"[{'imgObject': {}, 'id': 'bagel plain', 'src': '/static/foodstim60/bagel plain.jpg', 'key': 'u', 'origWidth': 410, 'origHeight': 410, 'width': 410, 'height': 410, 'widthPercent': 0.45, 'rescaleHeight': False, 'trialN': 108, 'loaded': True, 'loadedTime': 2582.4000000059605, 'positionName': 'LEFT', 'positionCoords': [511.6, 335], 'bid': 1.43}, {'imgObject': {}, 'id': 'hotdog w must', 'src': '/static/foodstim60/hotdog w must.jpg', 'key': 'i', 'origWidth': 409, 'origHeight': 409, 'width': 409, 'height': 409, 'widthPercent': 0.45, 'rescaleHeight': False, 'trialN': 108, 'loaded': True, 'loadedTime': 2605, 'positionName': 'RIGHT', 'positionCoords': [998.4, 335.5], 'bid': 1.42}]",207154.40000000596,1669829624435,bagel plain,hotdog w must,1.43,1.42,-0.010000000000000009,bagel plain,644.5999999940395,645,644.9000000059605,True,u,208306.09999999404,1151.699999988079,1669829625587,1152,HRV,HRV_0092,2022-11-30 17:35:58
