trialN,stimuli,question,trialStartTime,trialStartTime_UNIX,stimulus1,rt,receivedResponse,rating,trialEndTime,trialDuration,stimulus1Loaded,exp,subjectId,date
0,"[{'imgObject': {}, 'id': 'strawberries', 'src': '/static/foodstim60/strawberries.jpg', 'key': 'NaN', 'origWidth': 410, 'origHeight': 410, 'width': 410, 'height': 410, 'widthPercent': 0.8, 'rescaleHeight': True, 'trialN': 0, 'loaded': True, 'loadedTime': 2526, 'positionName': 'CENTER', 'positionCoords': [755, 335]}]",Rate how much you want to eat this food from 0 (least) to 10 (most).,2557.399999976158,1669829354180,strawberries,3419.100000023842,True,0.36,5976.5,3419.100000023842,True,HRV,HRV_0092,2022-11-30 17:30:20
1,"[{'imgObject': {}, 'id': 'olives', 'src': '/static/foodstim60/olives.jpg', 'key': 'NaN', 'origWidth': 410, 'origHeight': 410, 'width': 410, 'height': 410, 'widthPercent': 0.8, 'rescaleHeight': True, 'trialN': 1, 'loaded': True, 'loadedTime': 2526.5, 'positionName': 'CENTER', 'positionCoords': [755, 335]}]",Rate how much you want to eat this food from 0 (least) to 10 (most).,5978.299999982119,1669829357600,olives,460.2000000178814,True,0.36,6438.5,460.2000000178814,True,HRV,HRV_0092,2022-11-30 17:30:20
2,"[{'imgObject': {}, 'id': 'raisin bran w milk', 'src': '/static/foodstim60/raisin bran w milk.jpg', 'key': 'NaN', 'origWidth': 411, 'origHeight': 411, 'width': 411, 'height': 411, 'widthPercent': 0.8, 'rescaleHeight': True, 'trialN': 2, 'loaded': True, 'loadedTime': 2526.899999976158, 'positionName': 'CENTER', 'positionCoords': [754.5, 334.5]}]",Rate how much you want to eat this food from 0 (least) to 10 (most).,6440.0,1669829358062,raisin bran w milk,1212.5,True,0.43,7652.5,1212.5,True,HRV,HRV_0092,2022-11-30 17:30:20
3,"[{'imgObject': {}, 'id': 'granola w milk', 'src': '/static/foodstim60/granola w milk.jpg', 'key': 'NaN', 'origWidth': 410, 'origHeight': 410, 'width': 410, 'height': 410, 'widthPercent': 0.8, 'rescaleHeight': True, 'trialN': 3, 'loaded': True, 'loadedTime': 2527.5999999940395, 'positionName': 'CENTER', 'positionCoords': [755, 335]}]",Rate how much you want to eat this food from 0 (least) to 10 (most).,7653.899999976158,1669829359276,granola w milk,1507.4000000059605,True,0.43,9161.299999982119,1507.4000000059605,True,HRV,HRV_0092,2022-11-30 17:30:20
4,"[{'imgObject': {}, 'id': 'seaweed', 'src': '/static/foodstim60/seaweed.jpg', 'key': 'NaN', 'origWidth': 410, 'origHeight': 410, 'width': 410, 'height': 410, 'widthPercent': 0.8, 'rescaleHeight': True, 'trialN': 4, 'loaded': True, 'loadedTime': 2528.199999988079, 'positionName': 'CENTER', 'positionCoords': [755, 335]}]",Rate how much you want to eat this food from 0 (least) to 10 (most).,9162.699999988079,1669829360785,seaweed,651.1999999880791,True,0.61,9813.899999976158,651.1999999880791,True,HRV,HRV_0092,2022-11-30 17:30:20
5,"[{'imgObject': {}, 'id': 'raspberries', 'src': '/static/foodstim60/raspberries.jpg', 'key': 'NaN', 'origWidth': 411, 'origHeight': 411, 'width': 411, 'height': 411, 'widthPercent': 0.8, 'rescaleHeight': True, 'trialN': 5, 'loaded': True, 'loadedTime': 2528.699999988079, 'positionName': 'CENTER', 'positionCoords': [754.5, 334.5]}]",Rate how much you want to eat this food from 0 (least) to 10 (most).,9815.299999982119,1669829361438,raspberries,1054.5,True,0.81,10869.799999982119,1054.5,True,HRV,HRV_0092,2022-11-30 17:30:20
6,"[{'imgObject': {}, 'id': 'popsicles', 'src': '/static/foodstim60/popsicles.jpg', 'key': 'NaN', 'origWidth': 410, 'origHeight': 410, 'width': 410, 'height': 410, 'widthPercent': 0.8, 'rescaleHeight': True, 'trialN': 6, 'loaded': True, 'loadedTime': 2529.199999988079, 'positionName': 'CENTER', 'positionCoords': [755, 335]}]",Rate how much you want to eat this food from 0 (least) to 10 (most).,10871.399999976158,1669829362494,popsicles,1843.0,True,1.47,12714.399999976158,1843.0,True,HRV,HRV_0092,2022-11-30 17:30:20
7,"[{'imgObject': {}, 'id': 'sushi w_condiments', 'src': '/static/foodstim60/sushi w_condiments.jpg', 'key': 'NaN', 'origWidth': 410, 'origHeight': 410, 'width': 410, 'height': 410, 'widthPercent': 0.8, 'rescaleHeight': True, 'trialN': 7, 'loaded': True, 'loadedTime': 2529.5, 'positionName': 'CENTER', 'positionCoords': [755, 335]}]",Rate how much you want to eat this food from 0 (least) to 10 (most).,12716.09999999404,1669829364338,sushi w_condiments,449.59999999403954,True,0.85,13165.699999988079,449.59999999403954,True,HRV,HRV_0092,2022-11-30 17:30:20
8,"[{'imgObject': {}, 'id': 'chickenfingers', 'src': '/static/foodstim60/chickenfingers.jpg', 'key': 'NaN', 'origWidth': 410, 'origHeight': 410, 'width': 410, 'height': 410, 'widthPercent': 0.8, 'rescaleHeight': True, 'trialN': 8, 'loaded': True, 'loadedTime': 2529.899999976158, 'positionName': 'CENTER', 'positionCoords': [755, 335]}]",Rate how much you want to eat this food from 0 (least) to 10 (most).,13167.399999976158,1669829364790,chickenfingers,404.40000000596046,True,1.57,13571.799999982119,404.40000000596046,True,HRV,HRV_0092,2022-11-30 17:30:20
9,"[{'imgObject': {}, 'id': 'apple slices', 'src': '/static/foodstim60/apple slices.jpg', 'key': 'NaN', 'origWidth': 409, 'origHeight': 410, 'width': 409, 'height': 410, 'widthPercent': 0.8, 'rescaleHeight': True, 'trialN': 9, 'loaded': True, 'loadedTime': 2530.2999999821186, 'positionName': 'CENTER', 'positionCoords': [755.5, 335]}]",Rate how much you want to eat this food from 0 (least) to 10 (most).,13573.5,1669829365196,apple slices,368.5,True,0.9500000000000001,13942.0,368.5,True,HRV,HRV_0092,2022-11-30 17:30:20
10,"[{'imgObject': {}, 'id': 'rigatoni and sauce', 'src': '/static/foodstim60/rigatoni and sauce.jpg', 'key': 'NaN', 'origWidth': 410, 'origHeight': 411, 'width': 410, 'height': 411, 'widthPercent': 0.8, 'rescaleHeight': True, 'trialN': 10, 'loaded': True, 'loadedTime': 2530.699999988079, 'positionName': 'CENTER', 'positionCoords': [755, 334.5]}]",Rate how much you want to eat this food from 0 (least) to 10 (most).,13944.299999982119,1669829365567,rigatoni and sauce,418.5,True,1.46,14362.799999982119,418.5,True,HRV,HRV_0092,2022-11-30 17:30:20
11,"[{'imgObject': {}, 'id': 'turkeysandwich', 'src': '/static/foodstim60/turkeysandwich.jpg', 'key': 'NaN', 'origWidth': 409, 'origHeight': 409, 'width': 409, 'height': 409, 'widthPercent': 0.8, 'rescaleHeight': True, 'trialN': 11, 'loaded': True, 'loadedTime': 2531.2999999821186, 'positionName': 'CENTER', 'positionCoords': [755.5, 335.5]}]",Rate how much you want to eat this food from 0 (least) to 10 (most).,14364.5,1669829365987,turkeysandwich,334.0,True,0.92,14698.5,334.0,True,HRV,HRV_0092,2022-11-30 17:30:20
12,"[{'imgObject': {}, 'id': 'bagel and cc', 'src': '/static/foodstim60/bagel and cc.jpg', 'key': 'NaN', 'origWidth': 410, 'origHeight': 410, 'width': 410, 'height': 410, 'widthPercent': 0.8, 'rescaleHeight': True, 'trialN': 12, 'loaded': True, 'loadedTime': 2531.899999976158, 'positionName': 'CENTER', 'positionCoords': [755, 335]}]",Rate how much you want to eat this food from 0 (least) to 10 (most).,14700.199999988079,1669829366322,bagel and cc,332.30000001192093,True,1.42,15032.5,332.30000001192093,True,HRV,HRV_0092,2022-11-30 17:30:20
13,"[{'imgObject': {}, 'id': 'roastedpotatoes', 'src': '/static/foodstim60/roastedpotatoes.jpg', 'key': 'NaN', 'origWidth': 409, 'origHeight': 410, 'width': 409, 'height': 410, 'widthPercent': 0.8, 'rescaleHeight': True, 'trialN': 13, 'loaded': True, 'loadedTime': 2532.399999976158, 'positionName': 'CENTER', 'positionCoords': [755.5, 335]}]",Rate how much you want to eat this food from 0 (least) to 10 (most).,15034.09999999404,1669829366656,roastedpotatoes,248.5,True,1.08,15282.59999999404,248.5,True,HRV,HRV_0092,2022-11-30 17:30:20
14,"[{'imgObject': {}, 'id': 'lox', 'src': '/static/foodstim60/lox.jpg', 'key': 'NaN', 'origWidth': 410, 'origHeight': 411, 'width': 410, 'height': 411, 'widthPercent': 0.8, 'rescaleHeight': True, 'trialN': 14, 'loaded': True, 'loadedTime': 2533, 'positionName': 'CENTER', 'positionCoords': [755, 334.5]}]",Rate how much you want to eat this food from 0 (least) to 10 (most).,15284.59999999404,1669829366907,lox,314.0,True,1.53,15598.59999999404,314.0,True,HRV,HRV_0092,2022-11-30 17:30:20
15,"[{'imgObject': {}, 'id': 'eggs', 'src': '/static/foodstim60/eggs.jpg', 'key': 'NaN', 'origWidth': 409, 'origHeight': 409, 'width': 409, 'height': 409, 'widthPercent': 0.8, 'rescaleHeight': True, 'trialN': 15, 'loaded': True, 'loadedTime': 2533.5999999940395, 'positionName': 'CENTER', 'positionCoords': [755.5, 335.5]}]",Rate how much you want to eat this food from 0 (least) to 10 (most).,15600.199999988079,1669829367222,eggs,244.19999998807907,True,1.0,15844.399999976158,244.19999998807907,True,HRV,HRV_0092,2022-11-30 17:30:20
16,"[{'imgObject': {}, 'id': 'turkey sandwich', 'src': '/static/foodstim60/turkey sandwich.jpg', 'key': 'NaN', 'origWidth': 409, 'origHeight': 409, 'width': 409, 'height': 409, 'widthPercent': 0.8, 'rescaleHeight': True, 'trialN': 16, 'loaded': True, 'loadedTime': 2534, 'positionName': 'CENTER', 'positionCoords': [755.5, 335.5]}]",Rate how much you want to eat this food from 0 (least) to 10 (most).,15846.399999976158,1669829367469,turkey sandwich,268.0,True,1.32,16114.399999976158,268.0,True,HRV,HRV_0092,2022-11-30 17:30:20
17,"[{'imgObject': {}, 'id': 'ice cream sundae 002', 'src': '/static/foodstim60/ice cream sundae 002.jpg', 'key': 'NaN', 'origWidth': 409, 'origHeight': 409, 'width': 409, 'height': 409, 'widthPercent': 0.8, 'rescaleHeight': True, 'trialN': 17, 'loaded': True, 'loadedTime': 2534.5, 'positionName': 'CENTER', 'positionCoords': [755.5, 335.5]}]",Rate how much you want to eat this food from 0 (least) to 10 (most).,16116.0,1669829367738,ice cream sundae 002,302.7999999821186,True,1.01,16418.79999998212,302.7999999821186,True,HRV,HRV_0092,2022-11-30 17:30:20
18,"[{'imgObject': {}, 'id': 'banana', 'src': '/static/foodstim60/banana.jpg', 'key': 'NaN', 'origWidth': 410, 'origHeight': 410, 'width': 410, 'height': 410, 'widthPercent': 0.8, 'rescaleHeight': True, 'trialN': 18, 'loaded': True, 'loadedTime': 2535, 'positionName': 'CENTER', 'positionCoords': [755, 335]}]",Rate how much you want to eat this food from 0 (least) to 10 (most).,16420.399999976158,1669829368043,banana,278.0,True,1.51,16698.399999976158,278.0,True,HRV,HRV_0092,2022-11-30 17:30:20
19,"[{'imgObject': {}, 'id': 'blackbeanswithrice', 'src': '/static/foodstim60/blackbeanswithrice.jpg', 'key': 'NaN', 'origWidth': 410, 'origHeight': 410, 'width': 410, 'height': 410, 'widthPercent': 0.8, 'rescaleHeight': True, 'trialN': 19, 'loaded': True, 'loadedTime': 2535.5999999940395, 'positionName': 'CENTER', 'positionCoords': [755, 335]}]",Rate how much you want to eat this food from 0 (least) to 10 (most).,16700.09999999404,1669829368322,blackbeanswithrice,279.69999998807907,True,1.1400000000000001,16979.79999998212,279.69999998807907,True,HRV,HRV_0092,2022-11-30 17:30:20
20,"[{'imgObject': {}, 'id': 'mashed potato', 'src': '/static/foodstim60/mashed potato.jpg', 'key': 'NaN', 'origWidth': 409, 'origHeight': 409, 'width': 409, 'height': 409, 'widthPercent': 0.8, 'rescaleHeight': True, 'trialN': 20, 'loaded': True, 'loadedTime': 2536.0999999940395, 'positionName': 'CENTER', 'positionCoords': [755.5, 335.5]}]",Rate how much you want to eat this food from 0 (least) to 10 (most).,16981.5,1669829368604,mashed potato,282.09999999403954,True,1.46,17263.59999999404,282.09999999403954,True,HRV,HRV_0092,2022-11-30 17:30:20
21,"[{'imgObject': {}, 'id': 'cherries', 'src': '/static/foodstim60/cherries.jpg', 'key': 'NaN', 'origWidth': 410, 'origHeight': 411, 'width': 410, 'height': 411, 'widthPercent': 0.8, 'rescaleHeight': True, 'trialN': 21, 'loaded': True, 'loadedTime': 2536.5999999940395, 'positionName': 'CENTER', 'positionCoords': [755, 334.5]}]",Rate how much you want to eat this food from 0 (least) to 10 (most).,17265.09999999404,1669829368887,cherries,221.0,True,1.22,17486.09999999404,221.0,True,HRV,HRV_0092,2022-11-30 17:30:20
22,"[{'imgObject': {}, 'id': 'cheerios', 'src': '/static/foodstim60/cheerios.jpg', 'key': 'NaN', 'origWidth': 409, 'origHeight': 410, 'width': 409, 'height': 410, 'widthPercent': 0.8, 'rescaleHeight': True, 'trialN': 22, 'loaded': True, 'loadedTime': 2537, 'positionName': 'CENTER', 'positionCoords': [755.5, 335]}]",Rate how much you want to eat this food from 0 (least) to 10 (most).,17487.5,1669829369110,cheerios,255.2999999821186,True,1.4000000000000001,17742.79999998212,255.2999999821186,True,HRV,HRV_0092,2022-11-30 17:30:20
23,"[{'imgObject': {}, 'id': 'orange slices', 'src': '/static/foodstim60/orange slices.jpg', 'key': 'NaN', 'origWidth': 409, 'origHeight': 410, 'width': 409, 'height': 410, 'widthPercent': 0.8, 'rescaleHeight': True, 'trialN': 23, 'loaded': True, 'loadedTime': 2537.699999988079, 'positionName': 'CENTER', 'positionCoords': [755.5, 335]}]",Rate how much you want to eat this food from 0 (least) to 10 (most).,17744.5,1669829369367,orange slices,257.89999997615814,True,1.3,18002.399999976158,257.89999997615814,True,HRV,HRV_0092,2022-11-30 17:30:20
24,"[{'imgObject': {}, 'id': 'yogurt no spoon', 'src': '/static/foodstim60/yogurt no spoon.jpg', 'key': 'NaN', 'origWidth': 411, 'origHeight': 410, 'width': 411, 'height': 410, 'widthPercent': 0.8, 'rescaleHeight': True, 'trialN': 24, 'loaded': True, 'loadedTime': 2538.199999988079, 'positionName': 'CENTER', 'positionCoords': [754.5, 335]}]",Rate how much you want to eat this food from 0 (least) to 10 (most).,18004.0,1669829369626,yogurt no spoon,273.39999997615814,True,1.5,18277.399999976158,273.39999997615814,True,HRV,HRV_0092,2022-11-30 17:30:20
25,"[{'imgObject': {}, 'id': 'cantaloupe', 'src': '/static/foodstim60/cantaloupe.jpg', 'key': 'NaN', 'origWidth': 409, 'origHeight': 409, 'width': 409, 'height': 409, 'widthPercent': 0.8, 'rescaleHeight': True, 'trialN': 25, 'loaded': True, 'loadedTime': 2538.7999999821186, 'positionName': 'CENTER', 'positionCoords': [755.5, 335.5]}]",Rate how much you want to eat this food from 0 (least) to 10 (most).,18279.69999998808,1669829369902,cantaloupe,194.69999998807907,True,1.35,18474.399999976158,194.69999998807907,True,HRV,HRV_0092,2022-11-30 17:30:20
26,"[{'imgObject': {}, 'id': 'pear', 'src': '/static/foodstim60/pear.jpg', 'key': 'NaN', 'origWidth': 411, 'origHeight': 410, 'width': 411, 'height': 410, 'widthPercent': 0.8, 'rescaleHeight': True, 'trialN': 26, 'loaded': True, 'loadedTime': 2539.199999988079, 'positionName': 'CENTER', 'positionCoords': [754.5, 335]}]",Rate how much you want to eat this food from 0 (least) to 10 (most).,18476.09999999404,1669829370098,pear,290.09999999403954,True,1.51,18766.19999998808,290.09999999403954,True,HRV,HRV_0092,2022-11-30 17:30:20
27,"[{'imgObject': {}, 'id': 'Tribe humus pita', 'src': '/static/foodstim60/Tribe humus pita.jpg', 'key': 'NaN', 'origWidth': 411, 'origHeight': 411, 'width': 411, 'height': 411, 'widthPercent': 0.8, 'rescaleHeight': True, 'trialN': 27, 'loaded': True, 'loadedTime': 2539.699999988079, 'positionName': 'CENTER', 'positionCoords': [754.5, 334.5]}]",Rate how much you want to eat this food from 0 (least) to 10 (most).,18767.399999976158,1669829370390,Tribe humus pita,184.7000000178814,True,1.37,18952.09999999404,184.7000000178814,True,HRV,HRV_0092,2022-11-30 17:30:20
28,"[{'imgObject': {}, 'id': 'cherry tomato', 'src': '/static/foodstim60/cherry tomato.jpg', 'key': 'NaN', 'origWidth': 410, 'origHeight': 410, 'width': 410, 'height': 410, 'widthPercent': 0.8, 'rescaleHeight': True, 'trialN': 28, 'loaded': True, 'loadedTime': 2540.0999999940395, 'positionName': 'CENTER', 'positionCoords': [755, 335]}]",Rate how much you want to eat this food from 0 (least) to 10 (most).,18953.399999976158,1669829370576,cherry tomato,289.7000000178814,True,1.5,19243.09999999404,289.7000000178814,True,HRV,HRV_0092,2022-11-30 17:30:20
29,"[{'imgObject': {}, 'id': 'burrito', 'src': '/static/foodstim60/burrito.jpg', 'key': 'NaN', 'origWidth': 410, 'origHeight': 410, 'width': 410, 'height': 410, 'widthPercent': 0.8, 'rescaleHeight': True, 'trialN': 29, 'loaded': True, 'loadedTime': 2540.5999999940395, 'positionName': 'CENTER', 'positionCoords': [755, 335]}]",Rate how much you want to eat this food from 0 (least) to 10 (most).,19244.59999999404,1669829370867,burrito,253.59999999403954,True,1.29,19498.19999998808,253.59999999403954,True,HRV,HRV_0092,2022-11-30 17:30:20
30,"[{'imgObject': {}, 'id': 'froot loops w milk', 'src': '/static/foodstim60/froot loops w milk.jpg', 'key': 'NaN', 'origWidth': 410, 'origHeight': 410, 'width': 410, 'height': 410, 'widthPercent': 0.8, 'rescaleHeight': True, 'trialN': 30, 'loaded': True, 'loadedTime': 2541.5, 'positionName': 'CENTER', 'positionCoords': [755, 335]}]",Rate how much you want to eat this food from 0 (least) to 10 (most).,19499.29999998212,1669829371122,froot loops w milk,187.7000000178814,True,1.5,19687.0,187.7000000178814,True,HRV,HRV_0092,2022-11-30 17:30:20
31,"[{'imgObject': {}, 'id': 'avocado', 'src': '/static/foodstim60/avocado.jpg', 'key': 'NaN', 'origWidth': 409, 'origHeight': 409, 'width': 409, 'height': 409, 'widthPercent': 0.8, 'rescaleHeight': True, 'trialN': 31, 'loaded': True, 'loadedTime': 2541.899999976158, 'positionName': 'CENTER', 'positionCoords': [755.5, 335.5]}]",Rate how much you want to eat this food from 0 (least) to 10 (most).,19688.69999998808,1669829371311,avocado,227.5,True,1.84,19916.19999998808,227.5,True,HRV,HRV_0092,2022-11-30 17:30:20
32,"[{'imgObject': {}, 'id': 'salad w chicken', 'src': '/static/foodstim60/salad w chicken.jpg', 'key': 'NaN', 'origWidth': 411, 'origHeight': 411, 'width': 411, 'height': 411, 'widthPercent': 0.8, 'rescaleHeight': True, 'trialN': 32, 'loaded': True, 'loadedTime': 2543.199999988079, 'positionName': 'CENTER', 'positionCoords': [754.5, 334.5]}]",Rate how much you want to eat this food from 0 (least) to 10 (most).,19918.0,1669829371540,salad w chicken,213.89999997615814,True,1.37,20131.899999976158,213.89999997615814,True,HRV,HRV_0092,2022-11-30 17:30:20
33,"[{'imgObject': {}, 'id': 'baked potato', 'src': '/static/foodstim60/baked potato.jpg', 'key': 'NaN', 'origWidth': 409, 'origHeight': 410, 'width': 409, 'height': 410, 'widthPercent': 0.8, 'rescaleHeight': True, 'trialN': 33, 'loaded': True, 'loadedTime': 2544.399999976158, 'positionName': 'CENTER', 'positionCoords': [755.5, 335]}]",Rate how much you want to eat this food from 0 (least) to 10 (most).,20133.59999999404,1669829371756,baked potato,184.90000000596046,True,1.32,20318.5,184.90000000596046,True,HRV,HRV_0092,2022-11-30 17:30:20
34,"[{'imgObject': {}, 'id': 'fruitsalad', 'src': '/static/foodstim60/fruitsalad.jpg', 'key': 'NaN', 'origWidth': 410, 'origHeight': 410, 'width': 410, 'height': 410, 'widthPercent': 0.8, 'rescaleHeight': True, 'trialN': 34, 'loaded': True, 'loadedTime': 2545.699999988079, 'positionName': 'CENTER', 'positionCoords': [755, 335]}]",Rate how much you want to eat this food from 0 (least) to 10 (most).,20320.0,1669829371942,fruitsalad,302.5,True,1.84,20622.5,302.5,True,HRV,HRV_0092,2022-11-30 17:30:20
35,"[{'imgObject': {}, 'id': 'steak', 'src': '/static/foodstim60/steak.jpg', 'key': 'NaN', 'origWidth': 410, 'origHeight': 410, 'width': 410, 'height': 410, 'widthPercent': 0.8, 'rescaleHeight': True, 'trialN': 35, 'loaded': True, 'loadedTime': 2546.7999999821186, 'positionName': 'CENTER', 'positionCoords': [755, 335]}]",Rate how much you want to eat this food from 0 (least) to 10 (most).,20623.79999998212,1669829372246,steak,213.7000000178814,True,1.43,20837.5,213.7000000178814,True,HRV,HRV_0092,2022-11-30 17:30:20
36,"[{'imgObject': {}, 'id': 'shreddedwheatwithmilk', 'src': '/static/foodstim60/shreddedwheatwithmilk.jpg', 'key': 'NaN', 'origWidth': 410, 'origHeight': 410, 'width': 410, 'height': 410, 'widthPercent': 0.8, 'rescaleHeight': True, 'trialN': 36, 'loaded': True, 'loadedTime': 2547.399999976158, 'positionName': 'CENTER', 'positionCoords': [755, 335]}]",Rate how much you want to eat this food from 0 (least) to 10 (most).,20839.09999999404,1669829372461,shreddedwheatwithmilk,270.19999998807907,True,1.08,21109.29999998212,270.19999998807907,True,HRV,HRV_0092,2022-11-30 17:30:20
37,"[{'imgObject': {}, 'id': 'rigatoni', 'src': '/static/foodstim60/rigatoni.jpg', 'key': 'NaN', 'origWidth': 411, 'origHeight': 411, 'width': 411, 'height': 411, 'widthPercent': 0.8, 'rescaleHeight': True, 'trialN': 37, 'loaded': True, 'loadedTime': 2547.899999976158, 'positionName': 'CENTER', 'positionCoords': [754.5, 334.5]}]",Rate how much you want to eat this food from 0 (least) to 10 (most).,21110.899999976158,1669829372733,rigatoni,187.5,True,1.1,21298.399999976158,187.5,True,HRV,HRV_0092,2022-11-30 17:30:20
38,"[{'imgObject': {}, 'id': 'blueberries', 'src': '/static/foodstim60/blueberries.jpg', 'key': 'NaN', 'origWidth': 411, 'origHeight': 411, 'width': 411, 'height': 411, 'widthPercent': 0.8, 'rescaleHeight': True, 'trialN': 38, 'loaded': True, 'loadedTime': 2548.2999999821186, 'positionName': 'CENTER', 'positionCoords': [754.5, 334.5]}]",Rate how much you want to eat this food from 0 (least) to 10 (most).,21300.59999999404,1669829372923,blueberries,256.0,True,1.6400000000000001,21556.59999999404,256.0,True,HRV,HRV_0092,2022-11-30 17:30:20
39,"[{'imgObject': {}, 'id': 'luckycharms', 'src': '/static/foodstim60/luckycharms.jpg', 'key': 'NaN', 'origWidth': 410, 'origHeight': 409, 'width': 410, 'height': 409, 'widthPercent': 0.8, 'rescaleHeight': True, 'trialN': 39, 'loaded': True, 'loadedTime': 2548.699999988079, 'positionName': 'CENTER', 'positionCoords': [755, 335.5]}]",Rate how much you want to eat this food from 0 (least) to 10 (most).,21558.09999999404,1669829373180,luckycharms,216.5,True,1.46,21774.59999999404,216.5,True,HRV,HRV_0092,2022-11-30 17:30:20
40,"[{'imgObject': {}, 'id': 'Grapes', 'src': '/static/foodstim60/Grapes.jpg', 'key': 'NaN', 'origWidth': 411, 'origHeight': 411, 'width': 411, 'height': 411, 'widthPercent': 0.8, 'rescaleHeight': True, 'trialN': 40, 'loaded': True, 'loadedTime': 2549.2999999821186, 'positionName': 'CENTER', 'positionCoords': [754.5, 334.5]}]",Rate how much you want to eat this food from 0 (least) to 10 (most).,21776.19999998808,1669829373398,Grapes,232.69999998807907,True,1.68,22008.899999976158,232.69999998807907,True,HRV,HRV_0092,2022-11-30 17:30:20
41,"[{'imgObject': {}, 'id': 'veggieswithdip', 'src': '/static/foodstim60/veggieswithdip.jpg', 'key': 'NaN', 'origWidth': 409, 'origHeight': 409, 'width': 409, 'height': 409, 'widthPercent': 0.8, 'rescaleHeight': True, 'trialN': 41, 'loaded': True, 'loadedTime': 2549.7999999821186, 'positionName': 'CENTER', 'positionCoords': [755.5, 335.5]}]",Rate how much you want to eat this food from 0 (least) to 10 (most).,22010.5,1669829373633,veggieswithdip,155.59999999403954,True,1.6,22166.09999999404,155.59999999403954,True,HRV,HRV_0092,2022-11-30 17:30:20
42,"[{'imgObject': {}, 'id': 'kiwi', 'src': '/static/foodstim60/kiwi.jpg', 'key': 'NaN', 'origWidth': 410, 'origHeight': 410, 'width': 410, 'height': 410, 'widthPercent': 0.8, 'rescaleHeight': True, 'trialN': 42, 'loaded': True, 'loadedTime': 2550.2999999821186, 'positionName': 'CENTER', 'positionCoords': [755, 335]}]",Rate how much you want to eat this food from 0 (least) to 10 (most).,22167.399999976158,1669829373790,kiwi,324.0,True,1.69,22491.399999976158,324.0,True,HRV,HRV_0092,2022-11-30 17:30:20
43,"[{'imgObject': {}, 'id': 'omelette', 'src': '/static/foodstim60/omelette.jpg', 'key': 'NaN', 'origWidth': 410, 'origHeight': 409, 'width': 410, 'height': 409, 'widthPercent': 0.8, 'rescaleHeight': True, 'trialN': 43, 'loaded': True, 'loadedTime': 2550.5999999940395, 'positionName': 'CENTER', 'positionCoords': [755, 335.5]}]",Rate how much you want to eat this food from 0 (least) to 10 (most).,22493.19999998808,1669829374115,omelette,234.5,True,1.25,22727.69999998808,234.5,True,HRV,HRV_0092,2022-11-30 17:30:20
44,"[{'imgObject': {}, 'id': 'fried eggs', 'src': '/static/foodstim60/fried eggs.jpg', 'key': 'NaN', 'origWidth': 410, 'origHeight': 410, 'width': 410, 'height': 410, 'widthPercent': 0.8, 'rescaleHeight': True, 'trialN': 44, 'loaded': True, 'loadedTime': 2550.899999976158, 'positionName': 'CENTER', 'positionCoords': [755, 335]}]",Rate how much you want to eat this food from 0 (least) to 10 (most).,22729.29999998212,1669829374352,fried eggs,199.90000000596046,True,1.42,22929.19999998808,199.90000000596046,True,HRV,HRV_0092,2022-11-30 17:30:20
45,"[{'imgObject': {}, 'id': 'grilled chicken strips', 'src': '/static/foodstim60/grilled chicken strips.jpg', 'key': 'NaN', 'origWidth': 410, 'origHeight': 411, 'width': 410, 'height': 411, 'widthPercent': 0.8, 'rescaleHeight': True, 'trialN': 45, 'loaded': True, 'loadedTime': 2551.2999999821186, 'positionName': 'CENTER', 'positionCoords': [755, 334.5]}]",Rate how much you want to eat this food from 0 (least) to 10 (most).,22930.69999998808,1669829374553,grilled chicken strips,222.80000001192093,True,1.47,23153.5,222.80000001192093,True,HRV,HRV_0092,2022-11-30 17:30:20
46,"[{'imgObject': {}, 'id': 'cocktailshrimp', 'src': '/static/foodstim60/cocktailshrimp.jpg', 'key': 'NaN', 'origWidth': 410, 'origHeight': 410, 'width': 410, 'height': 410, 'widthPercent': 0.8, 'rescaleHeight': True, 'trialN': 46, 'loaded': True, 'loadedTime': 2551.5999999940395, 'positionName': 'CENTER', 'positionCoords': [755, 335]}]",Rate how much you want to eat this food from 0 (least) to 10 (most).,23154.79999998212,1669829374777,cocktailshrimp,271.7000000178814,True,1.67,23426.5,271.7000000178814,True,HRV,HRV_0092,2022-11-30 17:30:20
47,"[{'imgObject': {}, 'id': 'tacos', 'src': '/static/foodstim60/tacos.jpg', 'key': 'NaN', 'origWidth': 411, 'origHeight': 411, 'width': 411, 'height': 411, 'widthPercent': 0.8, 'rescaleHeight': True, 'trialN': 47, 'loaded': True, 'loadedTime': 2552, 'positionName': 'CENTER', 'positionCoords': [754.5, 334.5]}]",Rate how much you want to eat this food from 0 (least) to 10 (most).,23428.0,1669829375050,tacos,200.89999997615814,True,1.54,23628.899999976158,200.89999997615814,True,HRV,HRV_0092,2022-11-30 17:30:20
48,"[{'imgObject': {}, 'id': 'eggsalad', 'src': '/static/foodstim60/eggsalad.jpg', 'key': 'NaN', 'origWidth': 410, 'origHeight': 409, 'width': 410, 'height': 409, 'widthPercent': 0.8, 'rescaleHeight': True, 'trialN': 48, 'loaded': True, 'loadedTime': 2552.2999999821186, 'positionName': 'CENTER', 'positionCoords': [755, 335.5]}]",Rate how much you want to eat this food from 0 (least) to 10 (most).,23630.5,1669829375253,eggsalad,198.39999997615814,True,1.58,23828.899999976158,198.39999997615814,True,HRV,HRV_0092,2022-11-30 17:30:20
49,"[{'imgObject': {}, 'id': 'mango', 'src': '/static/foodstim60/mango.jpg', 'key': 'NaN', 'origWidth': 411, 'origHeight': 411, 'width': 411, 'height': 411, 'widthPercent': 0.8, 'rescaleHeight': True, 'trialN': 49, 'loaded': True, 'loadedTime': 2552.5, 'positionName': 'CENTER', 'positionCoords': [754.5, 334.5]}]",Rate how much you want to eat this food from 0 (least) to 10 (most).,23830.59999999404,1669829375453,mango,247.69999998807907,True,1.36,24078.29999998212,247.69999998807907,True,HRV,HRV_0092,2022-11-30 17:30:20
50,"[{'imgObject': {}, 'id': 'hashbrowns', 'src': '/static/foodstim60/hashbrowns.jpg', 'key': 'NaN', 'origWidth': 411, 'origHeight': 410, 'width': 411, 'height': 410, 'widthPercent': 0.8, 'rescaleHeight': True, 'trialN': 50, 'loaded': True, 'loadedTime': 2552.899999976158, 'positionName': 'CENTER', 'positionCoords': [754.5, 335]}]",Rate how much you want to eat this food from 0 (least) to 10 (most).,24081.09999999404,1669829375703,hashbrowns,176.7999999821186,True,1.28,24257.899999976158,176.7999999821186,True,HRV,HRV_0092,2022-11-30 17:30:20
51,"[{'imgObject': {}, 'id': 'hotdog w must', 'src': '/static/foodstim60/hotdog w must.jpg', 'key': 'NaN', 'origWidth': 409, 'origHeight': 409, 'width': 409, 'height': 409, 'widthPercent': 0.8, 'rescaleHeight': True, 'trialN': 51, 'loaded': True, 'loadedTime': 2553.2999999821186, 'positionName': 'CENTER', 'positionCoords': [755.5, 335.5]}]",Rate how much you want to eat this food from 0 (least) to 10 (most).,24259.899999976158,1669829375882,hotdog w must,269.10000002384186,True,1.42,24529.0,269.10000002384186,True,HRV,HRV_0092,2022-11-30 17:30:20
52,"[{'imgObject': {}, 'id': 'sweetpotato', 'src': '/static/foodstim60/sweetpotato.jpg', 'key': 'NaN', 'origWidth': 410, 'origHeight': 410, 'width': 410, 'height': 410, 'widthPercent': 0.8, 'rescaleHeight': True, 'trialN': 52, 'loaded': True, 'loadedTime': 2553.899999976158, 'positionName': 'CENTER', 'positionCoords': [755, 335]}]",Rate how much you want to eat this food from 0 (least) to 10 (most).,24531.09999999404,1669829376153,sweetpotato,189.90000000596046,True,1.26,24721.0,189.90000000596046,True,HRV,HRV_0092,2022-11-30 17:30:20
53,"[{'imgObject': {}, 'id': 'edamame', 'src': '/static/foodstim60/edamame.jpg', 'key': 'NaN', 'origWidth': 409, 'origHeight': 410, 'width': 409, 'height': 410, 'widthPercent': 0.8, 'rescaleHeight': True, 'trialN': 53, 'loaded': True, 'loadedTime': 2554.399999976158, 'positionName': 'CENTER', 'positionCoords': [755.5, 335]}]",Rate how much you want to eat this food from 0 (least) to 10 (most).,24722.5,1669829376345,edamame,274.69999998807907,True,1.29,24997.19999998808,274.69999998807907,True,HRV,HRV_0092,2022-11-30 17:30:20
54,"[{'imgObject': {}, 'id': 'mac & cheese', 'src': '/static/foodstim60/mac & cheese.jpg', 'key': 'NaN', 'origWidth': 410, 'origHeight': 410, 'width': 410, 'height': 410, 'widthPercent': 0.8, 'rescaleHeight': True, 'trialN': 54, 'loaded': True, 'loadedTime': 2554.899999976158, 'positionName': 'CENTER', 'positionCoords': [755, 335]}]",Rate how much you want to eat this food from 0 (least) to 10 (most).,24999.19999998808,1669829376621,mac & cheese,225.69999998807907,True,1.57,25224.899999976158,225.69999998807907,True,HRV,HRV_0092,2022-11-30 17:30:20
55,"[{'imgObject': {}, 'id': 'chicken nuggets2', 'src': '/static/foodstim60/chicken nuggets2.jpg', 'key': 'NaN', 'origWidth': 410, 'origHeight': 409, 'width': 410, 'height': 409, 'widthPercent': 0.8, 'rescaleHeight': True, 'trialN': 55, 'loaded': True, 'loadedTime': 2555.2999999821186, 'positionName': 'CENTER', 'positionCoords': [755, 335.5]}]",Rate how much you want to eat this food from 0 (least) to 10 (most).,25226.59999999404,1669829376849,chicken nuggets2,211.59999999403954,True,1.33,25438.19999998808,211.59999999403954,True,HRV,HRV_0092,2022-11-30 17:30:20
56,"[{'imgObject': {}, 'id': 'salmon', 'src': '/static/foodstim60/salmon.jpg', 'key': 'NaN', 'origWidth': 410, 'origHeight': 409, 'width': 410, 'height': 409, 'widthPercent': 0.8, 'rescaleHeight': True, 'trialN': 56, 'loaded': True, 'loadedTime': 2555.7999999821186, 'positionName': 'CENTER', 'positionCoords': [755, 335.5]}]",Rate how much you want to eat this food from 0 (least) to 10 (most).,25439.899999976158,1669829377062,salmon,281.90000000596046,True,1.58,25721.79999998212,281.90000000596046,True,HRV,HRV_0092,2022-11-30 17:30:20
57,"[{'imgObject': {}, 'id': 'corn cob', 'src': '/static/foodstim60/corn cob.jpg', 'key': 'NaN', 'origWidth': 411, 'origHeight': 411, 'width': 411, 'height': 411, 'widthPercent': 0.8, 'rescaleHeight': True, 'trialN': 57, 'loaded': True, 'loadedTime': 2556.199999988079, 'positionName': 'CENTER', 'positionCoords': [754.5, 334.5]}]",Rate how much you want to eat this food from 0 (least) to 10 (most).,25723.5,1669829377346,corn cob,209.39999997615814,True,1.36,25932.899999976158,209.39999997615814,True,HRV,HRV_0092,2022-11-30 17:30:20
58,"[{'imgObject': {}, 'id': 'bagel plain', 'src': '/static/foodstim60/bagel plain.jpg', 'key': 'NaN', 'origWidth': 410, 'origHeight': 410, 'width': 410, 'height': 410, 'widthPercent': 0.8, 'rescaleHeight': True, 'trialN': 58, 'loaded': True, 'loadedTime': 2556.5999999940395, 'positionName': 'CENTER', 'positionCoords': [755, 335]}]",Rate how much you want to eat this food from 0 (least) to 10 (most).,25934.399999976158,1669829377557,bagel plain,211.80000001192093,True,1.43,26146.19999998808,211.80000001192093,True,HRV,HRV_0092,2022-11-30 17:30:20
59,"[{'imgObject': {}, 'id': 'burger', 'src': '/static/foodstim60/burger.jpg', 'key': 'NaN', 'origWidth': 409, 'origHeight': 409, 'width': 409, 'height': 409, 'widthPercent': 0.8, 'rescaleHeight': True, 'trialN': 59, 'loaded': True, 'loadedTime': 2557, 'positionName': 'CENTER', 'positionCoords': [755.5, 335.5]}]",Rate how much you want to eat this food from 0 (least) to 10 (most).,26148.79999998212,1669829377771,burger,197.90000000596046,True,1.9100000000000001,26346.69999998808,197.90000000596046,True,HRV,HRV_0092,2022-11-30 17:30:20
