success,trial_type,trial_index,time_elapsed,internal_node_id,Block,TrialNumber,TrialTime,trialTimeDiff,FPS_avg,FPS_med,FPS_mode,TrialDur,winResizeTime,rt,block,button_pressed,MotCoh,MotDir,ColCoh,Color,ChoiceKey,Choice,Accuracy,RT,nFrames,FPS,PPD,missTrial,missTrialMsg,onsetDelay,fullScreenExitTime,canvCenter,TrialType,Score,BlockTrial,stimulus,button_labels,exp,subjectId,date
True,fullscreen,0,2341,0.0-0.0,0.0,1.0,,,,,,,,,,,,,,,,,,,,,,,,,,,,,,,,HRV,HRV_0004,2022-11-30 18:01:02
,wl-check-fps,1,7354,0.0-1.0,0.0,2.0,"[2905.8, 2915.9, 2932.7, 2949.2, 2965.8, 2982.5, 2999.3, 3015.9, 3036.1, 3066.6, 3083.6, 3100, 3116, 3132.6, 3149.5, 3166, 3182.7, 3199.6, 3216.5, 3233.1, 3249.7, 3266.5, 3282.9, 3299.9, 3316.4, 3333, 3349.6, 3366.2, 3382.8, 3399.5, 3416, 3432.7, 3449.5, 3466.5, 3482.8, 3499.5, 3516.5, 3533.2, 3549.6, 3566.5, 3582.9, 3599.5, 3616.2, 3633.1, 3649.5, 3666, 3683, 3700.1, 3716.5, 3733.2, 3749.8, 3766.1, 3783.1, 3799.5, 3816.5, 3832.8, 3849.6, 3866.5, 3883.2, 3899.9, 3916.2, 3932.6, 3949.5, 3966.5, 3982.8, 3999.8, 4016.6, 4032.9, 4049.7, 4068.9, 4083.1, 4099.3, 4115.9, 4132.4, 4149.2, 4166, 4182.5, 4199.6, 4216.1, 4233.8, 4249.9, 4266.8, 4282.7, 4299.9, 4316.4, 4332.9, 4349.6, 4366.5, 4382.9, 4399.8, 4416.4, 4432.8, 4449.5, 4466.5, 4483.1, 4499.6, 4516.5, 4532.7, 4551.6, 4566.6, 4583.2, 4599.5, 4616.4, 4632.8, 4649.5, 4666.5, 4683.1, 4699.5, 4716.4, 4732.8, 4749.7, 4766.5, 4782.9, 4799.5, 4816.1, 4832.9, 4849.9, 4866.5, 4883, 4899.8, 4916.2, 4933.1, 4949.7, 4966.5, 4983.2, 4999.8, 5016.4, 5033.1, 5049.8, 5066.5, 5083.6, 5099.5, 5116.4, 5133.1, 5149.8, 5166.5, 5182.9, 5199.7, 5216.4, 5233, 5249.5, 5266.4, 5282.7, 5299.7, 5316.1, 5332.8, 5349.8, 5366.5, 5382.8, 5399.5, 5416.5, 5433.1, 5449.5, 5466.7, 5483.1, 5499.5, 5516.4, 5533.1, 5549.4, 5566.4, 5582.7, 5599.8, 5616.1, 5632.8, 5649.5, 5667.6, 5683.1, 5699.9, 5716.3, 5733, 5750.3, 5766.3, 5782.7, 5799.5, 5816.2, 5832.8, 5849.5, 5866.4, 5883, 5899.5, 5916.6, 5932.8, 5949.5, 5966.4, 5983.1, 5999.4, 6016.2, 6032.8, 6049.5, 6066.2, 6083, 6099.8, 6116.6, 6133.1, 6149.5, 6166.1, 6183.2, 6200.2, 6216.4, 6232.8, 6249.5, 6266.3, 6282.7, 6299.5, 6316.1, 6332.8, 6349.5, 6366.3, 6382.9, 6399.5, 6416.2, 6432.8, 6449.5, 6466.2, 6482.8, 6499.5, 6516.1, 6533, 6549.6, 6567.4, 6585.5, 6600.8, 6617.9, 6634.4, 6650.7, 6666.5, 6684.2, 6701, 6717.5, 6733, 6749.6, 6767.9, 6784.2, 6800.9, 6817.3, 6834.3, 6851, 6867.6, 6884.4, 6900.9, 6916.3, 6932.7, 6950.7, 6967.5, 6984.2, 7000.8, 7017.2, 7034.3, 7050.8, 7067.6, 7083.9, 7101.2, 7117.7, 7133.8, 7149.7, 7167.2, 7184.1, 7199.7, 7216.2, 7234.4, 7249.6, 7266.2, 7282.8, 7299.5, 7316, 7332.8, 7349.4, 7366.2, 7382.8, 7399.6, 7415.9, 7432.7, 7449.2, 7465.9, 7482.5, 7499.1, 7515.8, 7532.4, 7549.2, 7565.8, 7582.4, 7599.2, 7615.8, 7632.8, 7649.4, 7665.9, 7682.6, 7699.4, 7715.8, 7732.5, 7749.6, 7766.2, 7782.7, 7799.4, 7816, 7832.5, 7849.3, 7865.8, 7882.4, 7899.2]","[1, 10.1, 16.8, 16.5, 16.6, 16.7, 16.8, 16.6, 20.2, 30.5, 17, 16.4, 16, 16.6, 16.9, 16.5, 16.7, 16.9, 16.9, 16.6, 16.6, 16.8, 16.4, 17, 16.5, 16.6, 16.6, 16.6, 16.6, 16.7, 16.5, 16.7, 16.8, 17, 16.3, 16.7, 17, 16.7, 16.4, 16.9, 16.4, 16.6, 16.7, 16.9, 16.4, 16.5, 17, 17.1, 16.4, 16.7, 16.6, 16.3, 17, 16.4, 17, 16.3, 16.8, 16.9, 16.7, 16.7, 16.3, 16.4, 16.9, 17, 16.3, 17, 16.8, 16.3, 16.8, 19.2, 14.2, 16.2, 16.6, 16.5, 16.8, 16.8, 16.5, 17.1, 16.5, 17.7, 16.1, 16.9, 15.9, 17.2, 16.5, 16.5, 16.7, 16.9, 16.4, 16.9, 16.6, 16.4, 16.7, 17, 16.6, 16.5, 16.9, 16.2, 18.9, 15, 16.6, 16.3, 16.9, 16.4, 16.7, 17, 16.6, 16.4, 16.9, 16.4, 16.9, 16.8, 16.4, 16.6, 16.6, 16.8, 17, 16.6, 16.5, 16.8, 16.4, 16.9, 16.6, 16.8, 16.7, 16.6, 16.6, 16.7, 16.7, 16.7, 17.1, 15.9, 16.9, 16.7, 16.7, 16.7, 16.4, 16.8, 16.7, 16.6, 16.5, 16.9, 16.3, 17, 16.4, 16.7, 17, 16.7, 16.3, 16.7, 17, 16.6, 16.4, 17.2, 16.4, 16.4, 16.9, 16.7, 16.3, 17, 16.3, 17.1, 16.3, 16.7, 16.7, 18.1, 15.5, 16.8, 16.4, 16.7, 17.3, 16, 16.4, 16.8, 16.7, 16.6, 16.7, 16.9, 16.6, 16.5, 17.1, 16.2, 16.7, 16.9, 16.7, 16.3, 16.8, 16.6, 16.7, 16.7, 16.8, 16.8, 16.8, 16.5, 16.4, 16.6, 17.1, 17, 16.2, 16.4, 16.7, 16.8, 16.4, 16.8, 16.6, 16.7, 16.7, 16.8, 16.6, 16.6, 16.7, 16.6, 16.7, 16.7, 16.6, 16.7, 16.6, 16.9, 16.6, 17.8, 18.1, 15.3, 17.1, 16.5, 16.3, 15.8, 17.7, 16.8, 16.5, 15.5, 16.6, 18.3, 16.3, 16.7, 16.4, 17, 16.7, 16.6, 16.8, 16.5, 15.4, 16.4, 18, 16.8, 16.7, 16.6, 16.4, 17.1, 16.5, 16.8, 16.3, 17.3, 16.5, 16.1, 15.9, 17.5, 16.9, 15.6, 16.5, 18.2, 15.2, 16.6, 16.6, 16.7, 16.5, 16.8, 16.6, 16.8, 16.6, 16.8, 16.3, 16.8, 16.5, 16.7, 16.6, 16.6, 16.7, 16.6, 16.8, 16.6, 16.6, 16.8, 16.6, 17, 16.6, 16.5, 16.7, 16.8, 16.4, 16.7, 17.1, 16.6, 16.5, 16.7, 16.6, 16.5, 16.8, 16.5, 16.6, 16.8]",60.0,59.0,60.0,5011.0,[],,,,,,,,,,,,,,,,,,,,,,,,,HRV,HRV_0004,2022-11-30 18:01:02
,wl-html-keyboard-response,2,57236,0.0-2.0-0.0,0.0,3.0,,,,,,,,47871.10000000149,0.0,0,,,,,,,,,,,,,,,,,,,,,,HRV,HRV_0004,2022-11-30 18:01:02
,wl-rdm,3,241990,0.0-3.0-0.0,0.0,3.0,,,,,,,[184750.6000000015],,,,0.0,0.0,87.9,0.0,,1.0,False,,0.0,60.0,40.0,True,too_early too_early too_early too_early too_early too_early too_early too_early too_early too_early RT_timeout too_early too_early too_early too_early too_early too_early exitFullScreen exitFullScreen ,3000.0,[],"[960, 540]",ColorTask_Demo,,,,,HRV,HRV_0004,2022-11-30 18:01:02
,wl-rdm,4,248334,0.0-3.0-1.0,0.0,3.0,,,,,,,[],,,,0.0,0.0,87.9,1.0,,,,,0.0,60.0,40.0,True,enterFullScreen blurEvent ,2000.0,[],"[None, None]",ColorTask_Demo,,,,,HRV,HRV_0004,2022-11-30 18:01:02
,wl-html-keyboard-response,5,251865,0.0-3.0-2.0,0.0,4.0,,,,,,,,1522.0,0.0,0,,,,,,,,,,,,,,,,,,,,,,HRV,HRV_0004,2022-11-30 18:01:02
,wl-rdm,6,259200,0.0-3.1-0.1,0.0,2.0,,,,,,,[],,,,0.0,0.0,87.9,0.0,u,0.0,True,1721.0999999940395,104.0,60.0,40.0,False,,3000.0,[],"[960, 540]",ColorTask_Demo,,,,,HRV,HRV_0004,2022-11-30 18:01:02
,wl-rdm,7,265316,0.0-3.1-1.1,0.0,3.0,,,,,,,[],,,,0.0,0.0,87.9,1.0,i,1.0,True,2021.4000000059605,122.0,60.0,40.0,False,,2000.0,[],"[960, 540]",ColorTask_Demo,,,,,HRV,HRV_0004,2022-11-30 18:01:02
,wl-html-keyboard-response,8,270945,0.0-3.1-2.1,0.0,4.0,,,,,,,,3618.7999999970198,0.0,1,,,,,,,,,,,,,,,,,,,,,,HRV,HRV_0004,2022-11-30 18:01:02
,wl-html-keyboard-response,9,281080,0.0-4.0-0.0,0.0,5.0,,,,,,,,8125.0999999940395,0.0,0,,,,,,,,,,,,,,,,,,,,,,HRV,HRV_0004,2022-11-30 18:01:02
,wl-html-keyboard-response,10,315331,0.0-5.0-0.0,0.0,6.0,,,,,,,,32232.0,0.0,0,,,,,,,,,,,,,,,,,,,,,,HRV,HRV_0004,2022-11-30 18:01:02
,wl-rdm,11,319666,0.0-6.0-0.0,0.0,6.0,,,,,,,[],,,,,,56.4,0.0,,,,,179.0,60.0,40.0,True,RT_timeout ,242.2049572228426,[],"[960, 540]",ColorTask,-1.0,1.0,,,HRV,HRV_0004,2022-11-30 18:01:02
,wl-rdm,12,322427,0.0-6.1-0.1,0.0,7.0,,,,,,,[],,,,,,56.4,1.0,i,1.0,True,1284.8999999985099,78.0,60.0,40.0,False,,379.50222378482135,[],"[960, 540]",ColorTask,0.0,2.0,,,HRV,HRV_0004,2022-11-30 18:01:02
,wl-rdm,13,324782,0.0-6.2-0.2,0.0,8.0,,,,,,,[],,,,,,73.6,1.0,i,1.0,True,1009.8999999985099,61.0,60.0,40.0,False,,278.9777360265559,[],"[960, 540]",ColorTask,1.0,3.0,,,HRV,HRV_0004,2022-11-30 18:01:02
,wl-rdm,14,327382,0.0-6.3-0.3,0.0,9.0,,,,,,,[],,,,,,53.2,1.0,i,1.0,True,1175.8000000044703,71.0,60.0,40.0,False,,362.1064968242975,[],"[960, 540]",ColorTask,2.0,4.0,,,HRV,HRV_0004,2022-11-30 18:01:02
,wl-rdm,15,330016,0.0-6.4-0.4,0.0,10.0,,,,,,,[],,,,,,56.4,1.0,i,1.0,True,1225.6000000014901,74.0,60.0,40.0,False,,332.60024450847254,[],"[960, 540]",ColorTask,3.0,5.0,,,HRV,HRV_0004,2022-11-30 18:01:02
,wl-rdm,16,332749,0.0-6.5-0.5,0.0,11.0,,,,,,,[],,,,,,53.2,1.0,u,0.0,False,1393.7999999895692,84.0,60.0,40.0,False,,271.4706992171458,[],"[960, 540]",ColorTask,2.0,6.0,,,HRV,HRV_0004,2022-11-30 18:01:02
,wl-rdm,17,334915,0.0-6.6-0.6,0.0,12.0,,,,,,,[],,,,,,50.0,1.0,i,1.0,True,872.0000000074506,53.0,60.0,40.0,False,,206.13833137874522,[],"[960, 540]",ColorTask,3.0,7.0,,,HRV,HRV_0004,2022-11-30 18:01:02
,wl-rdm,18,337132,0.0-6.7-0.7,0.0,13.0,,,,,,,[],,,,,,73.6,0.0,u,0.0,True,843.3999999985099,51.0,60.0,40.0,False,,304.68932516054474,[],"[960, 540]",ColorTask,4.0,8.0,,,HRV,HRV_0004,2022-11-30 18:01:02
,wl-rdm,19,339432,0.0-6.8-0.8,0.0,14.0,,,,,,,[],,,,,,56.4,0.0,i,1.0,False,991.2000000029802,60.0,60.0,40.0,False,,229.17890529062123,[],"[960, 540]",ColorTask,3.0,9.0,,,HRV,HRV_0004,2022-11-30 18:01:02
,wl-rdm,20,342016,0.0-6.9-0.9,0.0,15.0,,,,,,,[],,,,,,53.2,0.0,i,1.0,False,1134.8999999910593,69.0,60.0,40.0,False,,359.2750061857116,[],"[960, 540]",ColorTask,2.0,10.0,,,HRV,HRV_0004,2022-11-30 18:01:02
,wl-rdm,21,344132,0.0-6.10-0.10,0.0,16.0,,,,,,,[],,,,,,73.6,0.0,u,0.0,True,826.2999999970198,50.0,60.0,40.0,False,,218.20658983933163,[],"[960, 540]",ColorTask,3.0,11.0,,,HRV,HRV_0004,2022-11-30 18:01:02
,wl-rdm,22,346215,0.0-6.11-0.11,0.0,17.0,,,,,,,[],,,,,,87.9,1.0,i,1.0,True,759.1000000014901,46.0,60.0,40.0,False,,248.3385915228905,[],"[960, 540]",ColorTask,4.0,12.0,,,HRV,HRV_0004,2022-11-30 18:01:02
,wl-rdm,23,348699,0.0-6.12-0.12,0.0,18.0,,,,,,,[],,,,,,56.4,0.0,i,1.0,False,1037.7000000029802,63.0,60.0,40.0,False,,356.53327459406074,[],"[960, 540]",ColorTask,3.0,13.0,,,HRV,HRV_0004,2022-11-30 18:01:02
,wl-rdm,24,351599,0.0-6.13-0.13,0.0,19.0,,,,,,,[],,,,,,53.2,1.0,u,0.0,False,1485.1000000014901,90.0,60.0,40.0,False,,333.005235747854,[],"[960, 540]",ColorTask,2.0,14.0,,,HRV,HRV_0004,2022-11-30 18:01:02
,wl-rdm,25,353982,0.0-6.14-0.14,0.0,20.0,,,,,,,[],,,,,,53.2,1.0,i,1.0,True,941.5,57.0,60.0,40.0,False,,369.6157603685625,[],"[960, 540]",ColorTask,3.0,15.0,,,HRV,HRV_0004,2022-11-30 18:01:02
,wl-rdm,26,356182,0.0-6.15-0.15,0.0,21.0,,,,,,,[],,,,,,87.9,1.0,i,1.0,True,817.3999999985099,49.0,60.0,40.0,False,,300.161050302311,[],"[960, 540]",ColorTask,4.0,16.0,,,HRV,HRV_0004,2022-11-30 18:01:02
,wl-rdm,27,358815,0.0-6.16-0.16,0.0,22.0,,,,,,,[],,,,,,56.4,1.0,i,1.0,True,1218.2999999970198,74.0,60.0,40.0,False,,329.31545433889846,[],"[960, 540]",ColorTask,5.0,17.0,,,HRV,HRV_0004,2022-11-30 18:01:02
,wl-rdm,28,361115,0.0-6.17-0.17,0.0,23.0,,,,,,,[],,,,,,62.5,0.0,u,0.0,True,1013.0999999940395,61.0,60.0,40.0,False,,205.31347870379636,[],"[960, 540]",ColorTask,6.0,18.0,,,HRV,HRV_0004,2022-11-30 18:01:02
,wl-rdm,29,363565,0.0-6.18-0.18,0.0,24.0,,,,,,,[],,,,,,50.0,1.0,i,1.0,True,1159.5,70.0,60.0,40.0,False,,229.57015726793037,[],"[960, 540]",ColorTask,7.0,19.0,,,HRV,HRV_0004,2022-11-30 18:01:02
,wl-rdm,30,366115,0.0-6.19-0.19,0.0,25.0,,,,,,,[],,,,,,56.4,1.0,i,1.0,True,1126.7999999970198,68.0,60.0,40.0,False,,361.22947825441383,[],"[960, 540]",ColorTask,8.0,20.0,,,HRV,HRV_0004,2022-11-30 18:01:02
,wl-rdm,31,368515,0.0-6.20-0.20,0.0,26.0,,,,,,,[],,,,,,62.5,1.0,i,1.0,True,1094.5000000074506,66.0,60.0,40.0,False,,244.49875946872717,[],"[960, 540]",ColorTask,9.0,21.0,,,HRV,HRV_0004,2022-11-30 18:01:02
,wl-rdm,32,370832,0.0-6.21-0.21,0.0,27.0,,,,,,,[],,,,,,87.9,1.0,i,1.0,True,1016.8999999985099,61.0,60.0,40.0,False,,225.0840802956117,[],"[960, 540]",ColorTask,10.0,22.0,,,HRV,HRV_0004,2022-11-30 18:01:02
,wl-rdm,33,373132,0.0-6.22-0.22,0.0,28.0,,,,,,,[],,,,,,87.9,0.0,u,0.0,True,976.7000000029802,59.0,60.0,40.0,False,,250.34918552752004,[],"[960, 540]",ColorTask,11.0,23.0,,,HRV,HRV_0004,2022-11-30 18:01:02
,wl-rdm,34,375532,0.0-6.23-0.23,0.0,29.0,,,,,,,[],,,,,,56.4,1.0,i,1.0,True,1026.3999999985099,62.0,60.0,40.0,False,,309.4437613948581,[],"[960, 540]",ColorTask,12.0,24.0,,,HRV,HRV_0004,2022-11-30 18:01:02
,wl-rdm,35,377948,0.0-6.24-0.24,0.0,30.0,,,,,,,[],,,,,,62.5,0.0,u,0.0,True,1085.5,66.0,60.0,40.0,False,,261.18612158760897,[],"[960, 540]",ColorTask,13.0,25.0,,,HRV,HRV_0004,2022-11-30 18:01:02
,wl-rdm,36,380432,0.0-6.25-0.25,0.0,31.0,,,,,,,[],,,,,,62.5,0.0,i,1.0,False,1115.8000000044703,67.0,60.0,40.0,False,,301.85493444451464,[],"[960, 540]",ColorTask,12.0,26.0,,,HRV,HRV_0004,2022-11-30 18:01:02
,wl-rdm,37,382782,0.0-6.26-0.26,0.0,32.0,,,,,,,[],,,,,,56.4,0.0,u,0.0,True,1068.8999999910593,65.0,60.0,40.0,False,,210.97261691999034,[],"[960, 540]",ColorTask,13.0,27.0,,,HRV,HRV_0004,2022-11-30 18:01:02
,wl-rdm,38,385082,0.0-6.27-0.27,0.0,33.0,,,,,,,[],,,,,,87.9,0.0,u,0.0,True,989.4000000059605,60.0,60.0,40.0,False,,247.4629507356107,[],"[960, 540]",ColorTask,14.0,28.0,,,HRV,HRV_0004,2022-11-30 18:01:02
,wl-rdm,39,387298,0.0-6.28-0.28,0.0,34.0,,,,,,,[],,,,,,50.0,0.0,i,1.0,False,895.6000000014901,54.0,60.0,40.0,False,,254.721116874216,[],"[960, 540]",ColorTask,13.0,29.0,,,HRV,HRV_0004,2022-11-30 18:01:02
,wl-rdm,40,389731,0.0-6.29-0.29,0.0,35.0,,,,,,,[],,,,,,87.9,1.0,i,1.0,True,1018.2999999970198,62.0,60.0,40.0,False,,344.5031726887505,[],"[960, 540]",ColorTask,14.0,30.0,,,HRV,HRV_0004,2022-11-30 18:01:02
,wl-rdm,41,391981,0.0-6.30-0.30,0.0,36.0,,,,,,,[],,,,,,50.0,1.0,i,1.0,True,919.1000000014901,56.0,60.0,40.0,False,,245.99966005174693,[],"[960, 540]",ColorTask,15.0,31.0,,,HRV,HRV_0004,2022-11-30 18:01:02
,wl-rdm,42,394148,0.0-6.31-0.31,0.0,37.0,,,,,,,[],,,,,,56.4,1.0,i,1.0,True,871.1000000014901,53.0,60.0,40.0,False,,204.08428191893765,[],"[960, 540]",ColorTask,16.0,32.0,,,HRV,HRV_0004,2022-11-30 18:01:02
,wl-rdm,43,396402,0.0-6.32-0.32,0.0,38.0,,,,,,,[],,,,,,53.2,0.0,u,0.0,True,893.6000000014901,54.0,60.0,40.0,False,,267.35397385197166,[],"[960, 540]",ColorTask,17.0,33.0,,,HRV,HRV_0004,2022-11-30 18:01:02
,wl-rdm,44,398431,0.0-6.33-0.33,0.0,39.0,,,,,,,[],,,,,,56.4,0.0,i,1.0,False,750.2999999970198,45.0,60.0,40.0,False,,210.83338913495993,[],"[960, 540]",ColorTask,16.0,34.0,,,HRV,HRV_0004,2022-11-30 18:01:02
,wl-rdm,45,400865,0.0-6.34-0.34,0.0,40.0,,,,,,,[],,,,,,56.4,0.0,i,1.0,False,957.2999999970198,58.0,60.0,40.0,False,,393.5627153069066,[],"[960, 540]",ColorTask,15.0,35.0,,,HRV,HRV_0004,2022-11-30 18:01:02
,wl-rdm,46,403247,0.0-6.35-0.35,0.0,41.0,,,,,,,[],,,,,,56.4,1.0,i,1.0,True,949.0,57.0,60.0,40.0,False,,361.8215726615157,[],"[960, 540]",ColorTask,16.0,36.0,,,HRV,HRV_0004,2022-11-30 18:01:02
,wl-rdm,47,405464,0.0-6.36-0.36,0.0,42.0,,,,,,,[],,,,,,87.9,1.0,i,1.0,True,899.0,54.0,60.0,40.0,False,,234.3232486656104,[],"[960, 540]",ColorTask,17.0,37.0,,,HRV,HRV_0004,2022-11-30 18:01:02
,wl-rdm,48,407664,0.0-6.37-0.37,0.0,43.0,,,,,,,[],,,,,,73.6,0.0,u,0.0,True,896.5,54.0,60.0,40.0,False,,247.45825564407718,[],"[960, 540]",ColorTask,18.0,38.0,,,HRV,HRV_0004,2022-11-30 18:01:02
,wl-rdm,49,410181,0.0-6.38-0.38,0.0,44.0,,,,,,,[],,,,,,62.5,0.0,u,0.0,True,1036.2000000029802,63.0,60.0,40.0,False,,385.89719022459036,[],"[960, 540]",ColorTask,19.0,39.0,,,HRV,HRV_0004,2022-11-30 18:01:02
,wl-rdm,50,412547,0.0-6.39-0.39,0.0,45.0,,,,,,,[],,,,,,62.5,0.0,i,1.0,False,903.8999999910593,54.0,60.0,40.0,False,,367.0560365822035,[],"[960, 540]",ColorTask,18.0,40.0,,,HRV,HRV_0004,2022-11-30 18:01:02
,wl-rdm,51,414964,0.0-6.40-0.40,0.0,46.0,,,,,,,[],,,,,,62.5,1.0,i,1.0,True,952.3999999910593,58.0,60.0,40.0,False,,392.97146220301863,[],"[960, 540]",ColorTask,19.0,41.0,,,HRV,HRV_0004,2022-11-30 18:01:02
,wl-rdm,52,417281,0.0-6.41-0.41,0.0,47.0,,,,,,,[],,,,,,73.6,1.0,i,1.0,True,940.1000000014901,57.0,60.0,40.0,False,,296.8759383637646,[],"[960, 540]",ColorTask,20.0,42.0,,,HRV,HRV_0004,2022-11-30 18:01:02
,wl-rdm,53,419397,0.0-6.42-0.42,0.0,48.0,,,,,,,[],,,,,,73.6,0.0,u,0.0,True,818.8999999910593,50.0,60.0,40.0,False,,212.39434831285328,[],"[960, 540]",ColorTask,21.0,43.0,,,HRV,HRV_0004,2022-11-30 18:01:02
,wl-rdm,54,421597,0.0-6.43-0.43,0.0,49.0,,,,,,,[],,,,,,50.0,1.0,u,0.0,False,818.6000000014901,50.0,60.0,40.0,False,,315.5171403623938,[],"[960, 540]",ColorTask,20.0,44.0,,,HRV,HRV_0004,2022-11-30 18:01:02
,wl-rdm,55,423797,0.0-6.44-0.44,0.0,50.0,,,,,,,[],,,,,,53.2,1.0,i,1.0,True,858.5999999940395,52.0,60.0,40.0,False,,278.3365411499833,[],"[960, 540]",ColorTask,21.0,45.0,,,HRV,HRV_0004,2022-11-30 18:01:02
,wl-rdm,56,425997,0.0-6.45-0.45,0.0,51.0,,,,,,,[],,,,,,73.6,1.0,i,1.0,True,893.7999999970198,54.0,60.0,40.0,False,,219.82831515817207,[],"[960, 540]",ColorTask,22.0,46.0,,,HRV,HRV_0004,2022-11-30 18:01:02
,wl-rdm,57,428081,0.0-6.46-0.46,0.0,52.0,,,,,,,[],,,,,,87.9,0.0,u,0.0,True,813.5,49.0,60.0,40.0,False,,213.15031176075547,[],"[960, 540]",ColorTask,23.0,47.0,,,HRV,HRV_0004,2022-11-30 18:01:02
,wl-rdm,58,430347,0.0-6.47-0.47,0.0,53.0,,,,,,,[],,,,,,62.5,1.0,i,1.0,True,837.1000000014901,51.0,60.0,40.0,False,,340.41930316732095,[],"[960, 540]",ColorTask,24.0,48.0,,,HRV,HRV_0004,2022-11-30 18:01:02
,wl-rdm,59,432564,0.0-6.48-0.48,0.0,54.0,,,,,,,[],,,,,,73.6,1.0,i,1.0,True,759.8999999985099,46.0,60.0,40.0,False,,388.48806314690506,[],"[960, 540]",ColorTask,25.0,49.0,,,HRV,HRV_0004,2022-11-30 18:01:02
,wl-rdm,60,434681,0.0-6.49-0.49,0.0,55.0,,,,,,,[],,,,,,87.9,0.0,u,0.0,True,746.8999999910593,45.0,60.0,40.0,False,,316.69760440831806,[],"[960, 540]",ColorTask,26.0,50.0,,,HRV,HRV_0004,2022-11-30 18:01:02
,wl-rdm,61,436681,0.0-6.50-0.50,0.0,56.0,,,,,,,[],,,,,,53.2,0.0,i,1.0,False,656.5999999940395,40.0,60.0,40.0,False,,277.6486723967522,[],"[960, 540]",ColorTask,25.0,51.0,,,HRV,HRV_0004,2022-11-30 18:01:02
,wl-rdm,62,439098,0.0-6.51-0.51,0.0,57.0,,,,,,,[],,,,,,73.6,0.0,u,0.0,True,1006.4000000059605,61.0,60.0,40.0,False,,329.1301006099716,[],"[960, 540]",ColorTask,26.0,52.0,,,HRV,HRV_0004,2022-11-30 18:01:02
,wl-rdm,63,441514,0.0-6.52-0.52,0.0,58.0,,,,,,,[],,,,,,87.9,0.0,u,0.0,True,950.2999999970198,58.0,60.0,40.0,False,,390.3613762271173,[],"[960, 540]",ColorTask,27.0,53.0,,,HRV,HRV_0004,2022-11-30 18:01:02
,wl-rdm,64,443597,0.0-6.53-0.53,0.0,59.0,,,,,,,[],,,,,,87.9,1.0,i,1.0,True,808.7000000029802,49.0,60.0,40.0,False,,209.81564314225798,[],"[960, 540]",ColorTask,28.0,54.0,,,HRV,HRV_0004,2022-11-30 18:01:02
,wl-rdm,65,445847,0.0-6.54-0.54,0.0,60.0,,,,,,,[],,,,,,87.9,1.0,i,1.0,True,959.3000000044703,58.0,60.0,40.0,False,,208.04324846199427,[],"[960, 540]",ColorTask,29.0,55.0,,,HRV,HRV_0004,2022-11-30 18:01:02
,wl-rdm,66,448081,0.0-6.55-0.55,0.0,61.0,,,,,,,[],,,,,,50.0,0.0,u,0.0,True,888.6000000014901,54.0,60.0,40.0,False,,282.49183703526614,[],"[960, 540]",ColorTask,30.0,56.0,,,HRV,HRV_0004,2022-11-30 18:01:02
,wl-rdm,67,450380,0.0-6.56-0.56,0.0,62.0,,,,,,,[],,,,,,73.6,1.0,i,1.0,True,987.3999999985099,60.0,60.0,40.0,False,,220.53978865962583,[],"[960, 540]",ColorTask,31.0,57.0,,,HRV,HRV_0004,2022-11-30 18:01:02
,wl-rdm,68,452597,0.0-6.57-0.57,0.0,63.0,,,,,,,[],,,,,,62.5,0.0,u,0.0,True,918.7999999970198,56.0,60.0,40.0,False,,210.21871066838656,[],"[960, 540]",ColorTask,32.0,58.0,,,HRV,HRV_0004,2022-11-30 18:01:02
,wl-rdm,69,454780,0.0-6.58-0.58,0.0,64.0,,,,,,,[],,,,,,53.2,1.0,i,1.0,True,876.8000000044703,53.0,60.0,40.0,False,,237.85768559299294,[],"[960, 540]",ColorTask,33.0,59.0,,,HRV,HRV_0004,2022-11-30 18:01:02
,wl-rdm,70,457130,0.0-6.59-0.59,0.0,65.0,,,,,,,[],,,,,,62.5,0.0,i,1.0,False,1005.7000000029802,61.0,60.0,40.0,False,,250.63464117471815,[],"[960, 540]",ColorTask,32.0,60.0,,,HRV,HRV_0004,2022-11-30 18:01:02
,wl-rdm,71,459630,0.0-6.60-0.60,0.0,66.0,,,,,,,[],,,,,,62.5,0.0,u,0.0,True,1169.0,71.0,60.0,40.0,False,,235.19739787000063,[],"[960, 540]",ColorTask,33.0,61.0,,,HRV,HRV_0004,2022-11-30 18:01:02
,wl-rdm,72,461997,0.0-6.61-0.61,0.0,67.0,,,,,,,[],,,,,,62.5,1.0,i,1.0,True,1093.7999999970198,66.0,60.0,40.0,False,,203.11886573547213,[],"[960, 540]",ColorTask,34.0,62.0,,,HRV,HRV_0004,2022-11-30 18:01:02
,wl-rdm,73,464297,0.0-6.62-0.62,0.0,68.0,,,,,,,[],,,,,,56.4,1.0,u,0.0,False,1006.0999999940395,61.0,60.0,40.0,False,,220.3454127890715,[],"[960, 540]",ColorTask,33.0,63.0,,,HRV,HRV_0004,2022-11-30 18:01:02
,wl-rdm,74,466630,0.0-6.63-0.63,0.0,69.0,,,,,,,[],,,,,,53.2,1.0,i,1.0,True,916.3000000044703,55.0,60.0,40.0,False,,345.21295200268366,[],"[960, 540]",ColorTask,34.0,64.0,,,HRV,HRV_0004,2022-11-30 18:01:02
,wl-rdm,75,469063,0.0-6.64-0.64,0.0,70.0,,,,,,,[],,,,,,87.9,0.0,u,0.0,True,1146.8999999985099,69.0,60.0,40.0,False,,226.20618746069482,[],"[960, 540]",ColorTask,35.0,65.0,,,HRV,HRV_0004,2022-11-30 18:01:02
,wl-rdm,76,471430,0.0-6.65-0.65,0.0,71.0,,,,,,,[],,,,,,73.6,0.0,u,0.0,True,1015.4999999925494,61.0,60.0,40.0,False,,290.6703656910588,[],"[960, 540]",ColorTask,36.0,66.0,,,HRV,HRV_0004,2022-11-30 18:01:02
,wl-rdm,77,473563,0.0-6.66-0.66,0.0,72.0,,,,,,,[],,,,,,62.5,1.0,i,1.0,True,803.8000000044703,49.0,60.0,40.0,False,,238.22929637648556,[],"[960, 540]",ColorTask,37.0,67.0,,,HRV,HRV_0004,2022-11-30 18:01:02
,wl-rdm,78,475730,0.0-6.67-0.67,0.0,73.0,,,,,,,[],,,,,,56.4,0.0,u,0.0,True,896.9000000059605,54.0,60.0,40.0,False,,203.1836649345287,[],"[960, 540]",ColorTask,38.0,68.0,,,HRV,HRV_0004,2022-11-30 18:01:02
,wl-rdm,79,477980,0.0-6.68-0.68,0.0,74.0,,,,,,,[],,,,,,56.4,1.0,i,1.0,True,920.3999999985099,56.0,60.0,40.0,False,,234.68393960971008,[],"[960, 540]",ColorTask,39.0,69.0,,,HRV,HRV_0004,2022-11-30 18:01:02
,wl-rdm,80,480530,0.0-6.69-0.69,0.0,75.0,,,,,,,[],,,,,,62.5,1.0,i,1.0,True,1122.3999999985099,68.0,60.0,40.0,False,,348.2881412888284,[],"[960, 540]",ColorTask,40.0,70.0,,,HRV,HRV_0004,2022-11-30 18:01:02
,wl-rdm,81,482763,0.0-6.70-0.70,0.0,76.0,,,,,,,[],,,,,,87.9,0.0,u,0.0,True,894.0,54.0,60.0,40.0,False,,260.9889965698268,[],"[960, 540]",ColorTask,41.0,71.0,,,HRV,HRV_0004,2022-11-30 18:01:02
,wl-rdm,82,484980,0.0-6.71-0.71,0.0,77.0,,,,,,,[],,,,,,50.0,0.0,i,1.0,False,911.1999999955297,55.0,60.0,40.0,False,,233.52876303410434,[],"[960, 540]",ColorTask,40.0,72.0,,,HRV,HRV_0004,2022-11-30 18:01:02
,wl-rdm,83,487380,0.0-6.72-0.72,0.0,78.0,,,,,,,[],,,,,,62.5,1.0,u,0.0,False,1001.6000000014901,61.0,60.0,40.0,False,,325.02922460095846,[],"[960, 540]",ColorTask,39.0,73.0,,,HRV,HRV_0004,2022-11-30 18:01:02
,wl-rdm,84,490113,0.0-6.73-0.73,0.0,79.0,,,,,,,[],,,,,,50.0,1.0,i,1.0,True,1323.6000000014901,80.0,60.0,40.0,False,,332.59773883462975,[],"[960, 540]",ColorTask,40.0,74.0,,,HRV,HRV_0004,2022-11-30 18:01:02
,wl-rdm,85,492463,0.0-6.74-0.74,0.0,80.0,,,,,,,[],,,,,,50.0,1.0,i,1.0,True,1058.2999999970198,64.0,60.0,40.0,False,,201.32551947965666,[],"[960, 540]",ColorTask,41.0,75.0,,,HRV,HRV_0004,2022-11-30 18:01:02
,wl-rdm,86,494896,0.0-6.75-0.75,0.0,81.0,,,,,,,[],,,,,,73.6,1.0,i,1.0,True,1171.8999999910593,71.0,60.0,40.0,False,,200.04230473762516,[],"[960, 540]",ColorTask,42.0,76.0,,,HRV,HRV_0004,2022-11-30 18:01:02
,wl-rdm,87,497413,0.0-6.76-0.76,0.0,82.0,,,,,,,[],,,,,,87.9,0.0,u,0.0,True,1043.8999999910593,63.0,60.0,40.0,False,,391.8206288776068,[],"[960, 540]",ColorTask,43.0,77.0,,,HRV,HRV_0004,2022-11-30 18:01:02
,wl-rdm,88,499829,0.0-6.77-0.77,0.0,83.0,,,,,,,[],,,,,,53.2,0.0,i,1.0,False,1069.3000000044703,65.0,60.0,40.0,False,,251.77729265586913,[],"[960, 540]",ColorTask,42.0,78.0,,,HRV,HRV_0004,2022-11-30 18:01:02
,wl-rdm,89,502362,0.0-6.78-0.78,0.0,84.0,,,,,,,[],,,,,,53.2,0.0,u,0.0,True,1238.5999999940395,75.0,60.0,40.0,False,,215.6986672760264,[],"[960, 540]",ColorTask,43.0,79.0,,,HRV,HRV_0004,2022-11-30 18:01:02
,wl-rdm,90,505162,0.0-6.79-0.79,0.0,85.0,,,,,,,[],,,,,,50.0,0.0,i,1.0,False,1429.3000000044703,86.0,60.0,40.0,False,,288.22966417545945,[],"[960, 540]",ColorTask,42.0,80.0,,,HRV,HRV_0004,2022-11-30 18:01:02
,wl-rdm,91,508163,0.0-6.80-0.80,0.0,86.0,,,,,,,[],,,,,,56.4,0.0,i,1.0,False,1535.4000000059605,93.0,60.0,40.0,False,,385.719668618928,[],"[960, 540]",ColorTask,41.0,81.0,,,HRV,HRV_0004,2022-11-30 18:01:02
,wl-rdm,92,510879,0.0-6.81-0.81,0.0,87.0,,,,,,,[],,,,,,50.0,0.0,i,1.0,False,1357.1999999955297,82.0,60.0,40.0,False,,268.3086422322927,[],"[960, 540]",ColorTask,40.0,82.0,,,HRV,HRV_0004,2022-11-30 18:01:02
,wl-rdm,93,513429,0.0-6.82-0.82,0.0,88.0,,,,,,,[],,,,,,56.4,0.0,u,0.0,True,1209.4000000059605,73.0,60.0,40.0,False,,269.57512922761975,[],"[960, 540]",ColorTask,41.0,83.0,,,HRV,HRV_0004,2022-11-30 18:01:02
,wl-rdm,94,516129,0.0-6.83-0.83,0.0,89.0,,,,,,,[],,,,,,53.2,0.0,i,1.0,False,1373.4000000059605,83.0,60.0,40.0,False,,238.4416187730865,[],"[960, 540]",ColorTask,40.0,84.0,,,HRV,HRV_0004,2022-11-30 18:01:02
,wl-rdm,95,518613,0.0-6.84-0.84,0.0,90.0,,,,,,,[],,,,,,73.6,1.0,i,1.0,True,1053.0,64.0,60.0,40.0,False,,340.3805402988638,[],"[960, 540]",ColorTask,41.0,85.0,,,HRV,HRV_0004,2022-11-30 18:01:02
,wl-rdm,96,520980,0.0-6.85-0.85,0.0,91.0,,,,,,,[],,,,,,50.0,1.0,i,1.0,True,1029.0999999940395,62.0,60.0,40.0,False,,253.95899244201317,[],"[960, 540]",ColorTask,42.0,86.0,,,HRV,HRV_0004,2022-11-30 18:01:02
,wl-rdm,97,523596,0.0-6.86-0.86,0.0,92.0,,,,,,,[],,,,,,50.0,0.0,i,1.0,False,1170.4000000059605,71.0,60.0,40.0,False,,358.3897370548477,[],"[960, 540]",ColorTask,41.0,87.0,,,HRV,HRV_0004,2022-11-30 18:01:02
,wl-rdm,98,526013,0.0-6.87-0.87,0.0,93.0,,,,,,,[],,,,,,56.4,0.0,u,0.0,True,1083.0,65.0,60.0,40.0,False,,281.68788427603295,[],"[960, 540]",ColorTask,42.0,88.0,,,HRV,HRV_0004,2022-11-30 18:01:02
,wl-rdm,99,528513,0.0-6.88-0.88,0.0,94.0,,,,,,,[],,,,,,50.0,0.0,i,1.0,False,1139.8000000044703,69.0,60.0,40.0,False,,290.03189756394005,[],"[960, 540]",ColorTask,41.0,89.0,,,HRV,HRV_0004,2022-11-30 18:01:02
,wl-rdm,100,530963,0.0-6.89-0.89,0.0,95.0,,,,,,,[],,,,,,50.0,1.0,i,1.0,True,1069.7999999970198,65.0,60.0,40.0,False,,316.4749317206811,[],"[960, 540]",ColorTask,42.0,90.0,,,HRV,HRV_0004,2022-11-30 18:01:02
,wl-rdm,101,533346,0.0-6.90-0.90,0.0,96.0,,,,,,,[],,,,,,73.6,0.0,u,0.0,True,1102.7000000029802,66.0,60.0,40.0,False,,215.59992656645613,[],"[960, 540]",ColorTask,43.0,91.0,,,HRV,HRV_0004,2022-11-30 18:01:02
,wl-rdm,102,535879,0.0-6.91-0.91,0.0,97.0,,,,,,,[],,,,,,53.2,0.0,u,0.0,True,1224.0,74.0,60.0,40.0,False,,233.9424507875446,[],"[960, 540]",ColorTask,44.0,92.0,,,HRV,HRV_0004,2022-11-30 18:01:02
,wl-rdm,103,538279,0.0-6.92-0.92,0.0,98.0,,,,,,,[],,,,,,53.2,1.0,i,1.0,True,1099.3999999985099,66.0,60.0,40.0,False,,218.37036949081866,[],"[960, 540]",ColorTask,45.0,93.0,,,HRV,HRV_0004,2022-11-30 18:01:02
,wl-rdm,104,540879,0.0-6.93-0.93,0.0,99.0,,,,,,,[],,,,,,62.5,1.0,i,1.0,True,1141.1000000014901,69.0,60.0,40.0,False,,369.9086977051745,[],"[960, 540]",ColorTask,46.0,94.0,,,HRV,HRV_0004,2022-11-30 18:01:02
,wl-rdm,105,543096,0.0-6.94-0.94,0.0,100.0,,,,,,,[],,,,,,73.6,1.0,i,1.0,True,933.2000000029802,56.0,60.0,40.0,False,,215.05667959833647,[],"[960, 540]",ColorTask,47.0,95.0,,,HRV,HRV_0004,2022-11-30 18:01:02
,wl-rdm,106,545412,0.0-6.95-0.95,0.0,101.0,,,,,,,[],,,,,,50.0,0.0,i,1.0,False,894.5,54.0,60.0,40.0,False,,346.64133832155653,[],"[960, 540]",ColorTask,46.0,96.0,,,HRV,HRV_0004,2022-11-30 18:01:02
,wl-rdm,107,547729,0.0-6.96-0.96,0.0,102.0,,,,,,,[],,,,,,50.0,1.0,i,1.0,True,906.7000000029802,55.0,60.0,40.0,False,,325.6045815396632,[],"[960, 540]",ColorTask,47.0,97.0,,,HRV,HRV_0004,2022-11-30 18:01:02
,wl-rdm,108,549996,0.0-6.97-0.97,0.0,103.0,,,,,,,[],,,,,,73.6,0.0,u,0.0,True,944.5,57.0,60.0,40.0,False,,251.0303047636666,[],"[960, 540]",ColorTask,48.0,98.0,,,HRV,HRV_0004,2022-11-30 18:01:02
,wl-rdm,109,552380,0.0-6.98-0.98,0.0,104.0,,,,,,,[],,,,,,62.5,1.0,i,1.0,True,962.8999999985099,58.0,60.0,40.0,False,,333.768929004705,[],"[960, 540]",ColorTask,49.0,99.0,,,HRV,HRV_0004,2022-11-30 18:01:02
,wl-rdm,110,554796,0.0-6.99-0.99,0.0,105.0,,,,,,,[],,,,,,50.0,0.0,i,1.0,False,1144.3999999985099,69.0,60.0,40.0,False,,209.91847969851756,[],"[960, 540]",ColorTask,48.0,100.0,,,HRV,HRV_0004,2022-11-30 18:01:02
,wl-rdm,111,557146,0.0-6.100-0.100,0.0,106.0,,,,,,,[],,,,,,53.2,0.0,i,1.0,False,988.6000000014901,60.0,60.0,40.0,False,,293.88419235914927,[],"[960, 540]",ColorTask,47.0,101.0,,,HRV,HRV_0004,2022-11-30 18:01:02
,wl-rdm,112,559679,0.0-6.101-0.101,0.0,107.0,,,,,,,[],,,,,,62.5,0.0,u,0.0,True,1084.7999999970198,66.0,60.0,40.0,False,,362.933856319136,[],"[960, 540]",ColorTask,48.0,102.0,,,HRV,HRV_0004,2022-11-30 18:01:02
,wl-rdm,113,561996,0.0-6.102-0.102,0.0,108.0,,,,,,,[],,,,,,87.9,1.0,i,1.0,True,987.4999999925494,60.0,60.0,40.0,False,,242.11225680498612,[],"[960, 540]",ColorTask,49.0,103.0,,,HRV,HRV_0004,2022-11-30 18:01:02
,wl-rdm,114,564662,0.0-6.103-0.103,0.0,109.0,,,,,,,[],,,,,,53.2,0.0,i,1.0,False,1251.8000000044703,76.0,60.0,40.0,False,,347.6826969614673,[],"[960, 540]",ColorTask,48.0,104.0,,,HRV,HRV_0004,2022-11-30 18:01:02
,wl-rdm,115,566929,0.0-6.104-0.104,0.0,110.0,,,,,,,[],,,,,,73.6,0.0,u,0.0,True,822.5999999940395,50.0,60.0,40.0,False,,375.9272149959005,[],"[960, 540]",ColorTask,49.0,105.0,,,HRV,HRV_0004,2022-11-30 18:01:02
,wl-rdm,116,569029,0.0-6.105-0.105,0.0,111.0,,,,,,,[],,,,,,87.9,0.0,u,0.0,True,752.1000000014901,46.0,60.0,40.0,False,,280.26023947794556,[],"[960, 540]",ColorTask,50.0,106.0,,,HRV,HRV_0004,2022-11-30 18:01:02
,wl-rdm,117,571095,0.0-6.106-0.106,0.0,112.0,,,,,,,[],,,,,,87.9,1.0,i,1.0,True,747.8999999985099,45.0,60.0,40.0,False,,261.9148285036557,[],"[960, 540]",ColorTask,51.0,107.0,,,HRV,HRV_0004,2022-11-30 18:01:02
,wl-rdm,118,573512,0.0-6.107-0.107,0.0,113.0,,,,,,,[],,,,,,53.2,1.0,i,1.0,True,1021.8999999985099,62.0,60.0,40.0,False,,301.9590611634427,[],"[960, 540]",ColorTask,52.0,108.0,,,HRV,HRV_0004,2022-11-30 18:01:02
,wl-rdm,119,575862,0.0-6.108-0.108,0.0,114.0,,,,,,,[],,,,,,73.6,1.0,i,1.0,True,917.6000000014901,56.0,60.0,40.0,False,,357.01679550583236,[],"[960, 540]",ColorTask,53.0,109.0,,,HRV,HRV_0004,2022-11-30 18:01:02
,wl-html-keyboard-response,120,582944,0.0-7.0-0.0,1.0,115.0,,,,,,,,5717.29999999702,1.0,0,,,,,,,,,,,,,,,,,,,,,,HRV,HRV_0004,2022-11-30 18:01:02
,wl-rdm,121,585028,0.0-8.0-0.0,1.0,116.0,,,,,,,[],,,,,,87.9,1.0,i,1.0,True,802.7000000029802,49.0,60.0,40.0,False,,214.93537504737432,[],"[960, 540]",ColorTask,54.0,1.0,,,HRV,HRV_0004,2022-11-30 18:01:02
,wl-rdm,122,587278,0.0-8.1-0.1,1.0,117.0,,,,,,,[],,,,,,53.2,1.0,i,1.0,True,851.5,52.0,60.0,40.0,False,,304.36936682255634,[],"[960, 540]",ColorTask,55.0,2.0,,,HRV,HRV_0004,2022-11-30 18:01:02
,wl-rdm,123,589525,0.0-8.2-0.2,1.0,118.0,,,,,,,[],,,,,,50.0,0.0,i,1.0,False,851.7000000029802,52.0,60.0,40.0,False,,299.09967242218056,[],"[960, 540]",ColorTask,54.0,3.0,,,HRV,HRV_0004,2022-11-30 18:01:02
,wl-rdm,124,591861,0.0-8.3-0.3,1.0,119.0,,,,,,,[],,,,,,56.4,0.0,i,1.0,False,992.6000000014901,60.0,60.0,40.0,False,,252.2878694683015,[],"[960, 540]",ColorTask,53.0,4.0,,,HRV,HRV_0004,2022-11-30 18:01:02
,wl-rdm,125,594261,0.0-8.4-0.4,1.0,120.0,,,,,,,[],,,,,,56.4,0.0,u,0.0,True,985.1000000014901,60.0,60.0,40.0,False,,319.38713425155925,[],"[960, 540]",ColorTask,54.0,5.0,,,HRV,HRV_0004,2022-11-30 18:01:02
,wl-rdm,126,596611,0.0-8.5-0.5,1.0,121.0,,,,,,,[],,,,,,62.5,0.0,u,0.0,True,1053.2000000029802,64.0,60.0,40.0,False,,203.35627384828553,[],"[960, 540]",ColorTask,55.0,6.0,,,HRV,HRV_0004,2022-11-30 18:01:02
,wl-rdm,127,598961,0.0-8.6-0.6,1.0,122.0,,,,,,,[],,,,,,73.6,0.0,u,0.0,True,904.8999999985099,55.0,60.0,40.0,False,,354.71152678793123,[],"[960, 540]",ColorTask,56.0,7.0,,,HRV,HRV_0004,2022-11-30 18:01:02
,wl-rdm,128,601361,0.0-8.7-0.7,1.0,123.0,,,,,,,[],,,,,,73.6,1.0,i,1.0,True,990.3000000044703,60.0,60.0,40.0,False,,319.2125572860502,[],"[960, 540]",ColorTask,57.0,8.0,,,HRV,HRV_0004,2022-11-30 18:01:02
,wl-rdm,129,603695,0.0-8.8-0.8,1.0,124.0,,,,,,,[],,,,,,73.6,1.0,i,1.0,True,983.6000000014901,59.0,60.0,40.0,False,,266.7244253874634,[],"[960, 540]",ColorTask,58.0,9.0,,,HRV,HRV_0004,2022-11-30 18:01:02
,wl-rdm,130,606061,0.0-8.9-0.9,1.0,125.0,,,,,,,[],,,,,,53.2,1.0,i,1.0,True,1059.4999999925494,64.0,60.0,40.0,False,,238.00124635087653,[],"[960, 540]",ColorTask,59.0,10.0,,,HRV,HRV_0004,2022-11-30 18:01:02
,wl-rdm,131,608511,0.0-8.10-0.10,1.0,126.0,,,,,,,[],,,,,,62.5,1.0,i,1.0,True,1157.1999999955297,70.0,60.0,40.0,False,,226.00707011216122,[],"[960, 540]",ColorTask,60.0,11.0,,,HRV,HRV_0004,2022-11-30 18:01:02
,wl-rdm,132,611244,0.0-8.11-0.11,1.0,127.0,,,,,,,[],,,,,,87.9,1.0,i,1.0,True,1309.5000000074506,79.0,60.0,40.0,False,,344.5222864737491,[],"[960, 540]",ColorTask,61.0,12.0,,,HRV,HRV_0004,2022-11-30 18:01:02
,wl-rdm,133,613494,0.0-8.12-0.12,1.0,128.0,,,,,,,[],,,,,,73.6,0.0,u,0.0,True,951.8999999985099,58.0,60.0,40.0,False,,208.29271014694862,[],"[960, 540]",ColorTask,62.0,13.0,,,HRV,HRV_0004,2022-11-30 18:01:02
,wl-rdm,134,616178,0.0-8.13-0.13,1.0,129.0,,,,,,,[],,,,,,56.4,1.0,i,1.0,True,1296.7000000029802,78.0,60.0,40.0,False,,315.19101281657674,[],"[960, 540]",ColorTask,63.0,14.0,,,HRV,HRV_0004,2022-11-30 18:01:02
,wl-rdm,135,618645,0.0-8.14-0.14,1.0,130.0,,,,,,,[],,,,,,50.0,1.0,i,1.0,True,1169.1000000014901,71.0,60.0,40.0,False,,202.82412145329505,[],"[960, 540]",ColorTask,64.0,15.0,,,HRV,HRV_0004,2022-11-30 18:01:02
,wl-rdm,136,621195,0.0-8.15-0.15,1.0,131.0,,,,,,,[],,,,,,62.5,1.0,i,1.0,True,1138.5999999940395,69.0,60.0,40.0,False,,318.82678213827205,[],"[960, 540]",ColorTask,65.0,16.0,,,HRV,HRV_0004,2022-11-30 18:01:02
,wl-rdm,137,623711,0.0-8.16-0.16,1.0,132.0,,,,,,,[],,,,,,73.6,1.0,i,1.0,True,1168.2999999970198,71.0,60.0,40.0,False,,265.35028306230305,[],"[960, 540]",ColorTask,66.0,17.0,,,HRV,HRV_0004,2022-11-30 18:01:02
,wl-rdm,138,626294,0.0-8.17-0.17,1.0,133.0,,,,,,,[],,,,,,56.4,0.0,i,1.0,False,1218.7999999970198,74.0,60.0,40.0,False,,282.89008582019244,[],"[960, 540]",ColorTask,65.0,18.0,,,HRV,HRV_0004,2022-11-30 18:01:02
,wl-rdm,139,628710,0.0-8.18-0.18,1.0,134.0,,,,,,,[],,,,,,53.2,0.0,u,0.0,True,1098.8999999985099,66.0,60.0,40.0,False,,237.61791294771274,[],"[960, 540]",ColorTask,66.0,19.0,,,HRV,HRV_0004,2022-11-30 18:01:02
,wl-rdm,140,630911,0.0-8.19-0.19,1.0,135.0,,,,,,,[],,,,,,73.6,1.0,i,1.0,True,931.8999999985099,56.0,60.0,40.0,False,,207.14480788563077,[],"[960, 540]",ColorTask,67.0,20.0,,,HRV,HRV_0004,2022-11-30 18:01:02
,wl-rdm,141,633394,0.0-8.20-0.20,1.0,136.0,,,,,,,[],,,,,,50.0,0.0,i,1.0,False,1187.8999999985099,72.0,60.0,40.0,False,,202.66889037478748,[],"[960, 540]",ColorTask,66.0,21.0,,,HRV,HRV_0004,2022-11-30 18:01:02
,wl-rdm,142,635827,0.0-8.21-0.21,1.0,137.0,,,,,,,[],,,,,,87.9,0.0,u,0.0,True,985.8999999985099,60.0,60.0,40.0,False,,378.8380980574617,[],"[960, 540]",ColorTask,67.0,22.0,,,HRV,HRV_0004,2022-11-30 18:01:02
,wl-rdm,143,638510,0.0-8.22-0.22,1.0,138.0,,,,,,,[],,,,,,87.9,1.0,i,1.0,True,1290.2999999970198,78.0,60.0,40.0,False,,324.63700063517814,[],"[960, 540]",ColorTask,68.0,23.0,,,HRV,HRV_0004,2022-11-30 18:01:02
,wl-rdm,144,641277,0.0-8.23-0.23,1.0,139.0,,,,,,,[],,,,,,73.6,1.0,i,1.0,True,1341.8000000044703,81.0,60.0,40.0,False,,359.91052857677823,[],"[960, 540]",ColorTask,69.0,24.0,,,HRV,HRV_0004,2022-11-30 18:01:02
,wl-rdm,145,643877,0.0-8.24-0.24,1.0,140.0,,,,,,,[],,,,,,53.2,0.0,u,0.0,True,1310.1000000014901,79.0,60.0,40.0,False,,209.25786014034185,[],"[960, 540]",ColorTask,70.0,25.0,,,HRV,HRV_0004,2022-11-30 18:01:02
,wl-rdm,146,646494,0.0-8.25-0.25,1.0,141.0,,,,,,,[],,,,,,87.9,0.0,u,0.0,True,1251.8000000044703,76.0,60.0,40.0,False,,278.4409053263198,[],"[960, 540]",ColorTask,71.0,26.0,,,HRV,HRV_0004,2022-11-30 18:01:02
,wl-rdm,147,648960,0.0-8.26-0.26,1.0,142.0,,,,,,,[],,,,,,73.6,0.0,u,0.0,True,1073.3999999910593,65.0,60.0,40.0,False,,303.4442239270854,[],"[960, 540]",ColorTask,72.0,27.0,,,HRV,HRV_0004,2022-11-30 18:01:02
,wl-rdm,148,651577,0.0-8.27-0.27,1.0,143.0,,,,,,,[],,,,,,87.9,0.0,u,0.0,True,1156.5999999940395,70.0,60.0,40.0,False,,370.82516530880173,[],"[960, 540]",ColorTask,73.0,28.0,,,HRV,HRV_0004,2022-11-30 18:01:02
,wl-rdm,149,653927,0.0-8.28-0.28,1.0,144.0,,,,,,,[],,,,,,56.4,1.0,u,0.0,False,991.6000000014901,60.0,60.0,40.0,False,,269.1852311446241,[],"[960, 540]",ColorTask,72.0,29.0,,,HRV,HRV_0004,2022-11-30 18:01:02
,wl-rdm,150,656310,0.0-8.29-0.29,1.0,145.0,,,,,,,[],,,,,,53.2,0.0,i,1.0,False,1057.8000000044703,64.0,60.0,40.0,False,,255.78375975354686,[],"[960, 540]",ColorTask,71.0,30.0,,,HRV,HRV_0004,2022-11-30 18:01:02
,wl-rdm,151,658744,0.0-8.30-0.30,1.0,146.0,,,,,,,[],,,,,,62.5,0.0,u,0.0,True,1057.2000000029802,64.0,60.0,40.0,False,,303.37585827352757,[],"[960, 540]",ColorTask,72.0,31.0,,,HRV,HRV_0004,2022-11-30 18:01:02
,wl-rdm,152,661144,0.0-8.31-0.31,1.0,147.0,,,,,,,[],,,,,,50.0,1.0,u,0.0,False,1048.8999999910593,63.0,60.0,40.0,False,,273.35466683878354,[],"[960, 540]",ColorTask,71.0,32.0,,,HRV,HRV_0004,2022-11-30 18:01:02
,wl-rdm,153,663494,0.0-8.32-0.32,1.0,148.0,,,,,,,[],,,,,,73.6,1.0,i,1.0,True,1018.9000000059605,62.0,60.0,40.0,False,,239.50190958944273,[],"[960, 540]",ColorTask,72.0,33.0,,,HRV,HRV_0004,2022-11-30 18:01:02
,wl-rdm,154,666027,0.0-8.33-0.33,1.0,149.0,,,,,,,[],,,,,,73.6,0.0,u,0.0,True,1169.6999999955297,71.0,60.0,40.0,False,,294.4913428341555,[],"[960, 540]",ColorTask,73.0,34.0,,,HRV,HRV_0004,2022-11-30 18:01:02
,wl-rdm,155,668660,0.0-8.34-0.34,1.0,150.0,,,,,,,[],,,,,,73.6,0.0,u,0.0,True,1168.7999999970198,71.0,60.0,40.0,False,,394.4257912994939,[],"[960, 540]",ColorTask,74.0,35.0,,,HRV,HRV_0004,2022-11-30 18:01:02
,wl-rdm,156,671243,0.0-8.35-0.35,1.0,151.0,,,,,,,[],,,,,,56.4,1.0,u,0.0,False,1135.6999999955297,69.0,60.0,40.0,False,,378.05471574931374,[],"[960, 540]",ColorTask,73.0,36.0,,,HRV,HRV_0004,2022-11-30 18:01:02
,wl-rdm,157,673727,0.0-8.36-0.36,1.0,152.0,,,,,,,[],,,,,,62.5,1.0,i,1.0,True,1075.1000000014901,65.0,60.0,40.0,False,,333.41784559486644,[],"[960, 540]",ColorTask,74.0,37.0,,,HRV,HRV_0004,2022-11-30 18:01:02
,wl-rdm,158,676243,0.0-8.37-0.37,1.0,153.0,,,,,,,[],,,,,,87.9,1.0,i,1.0,True,1169.5,71.0,60.0,40.0,False,,251.64248473382114,[],"[960, 540]",ColorTask,75.0,38.0,,,HRV,HRV_0004,2022-11-30 18:01:02
,wl-rdm,159,678827,0.0-8.38-0.38,1.0,154.0,,,,,,,[],,,,,,62.5,1.0,u,0.0,False,1226.9999999925494,74.0,60.0,40.0,False,,299.18381885585893,[],"[960, 540]",ColorTask,74.0,39.0,,,HRV,HRV_0004,2022-11-30 18:01:02
,wl-rdm,160,681276,0.0-8.39-0.39,1.0,155.0,,,,,,,[],,,,,,56.4,1.0,u,0.0,False,1052.6999999955297,64.0,60.0,40.0,False,,300.14227440513247,[],"[960, 540]",ColorTask,73.0,40.0,,,HRV,HRV_0004,2022-11-30 18:01:02
,wl-rdm,161,683843,0.0-8.40-0.40,1.0,156.0,,,,,,,[],,,,,,56.4,1.0,i,1.0,True,1128.9999999925494,68.0,60.0,40.0,False,,352.29273822809074,[],"[960, 540]",ColorTask,74.0,41.0,,,HRV,HRV_0004,2022-11-30 18:01:02
,wl-rdm,162,686310,0.0-8.41-0.41,1.0,157.0,,,,,,,[],,,,,,62.5,1.0,i,1.0,True,1191.2999999895692,72.0,60.0,40.0,False,,209.74465989342679,[],"[960, 540]",ColorTask,75.0,42.0,,,HRV,HRV_0004,2022-11-30 18:01:02
,wl-rdm,163,688843,0.0-8.42-0.42,1.0,158.0,,,,,,,[],,,,,,62.5,0.0,u,0.0,True,1237.3000000044703,75.0,60.0,40.0,False,,207.64379304916915,[],"[960, 540]",ColorTask,76.0,43.0,,,HRV,HRV_0004,2022-11-30 18:01:02
,wl-rdm,164,691360,0.0-8.43-0.43,1.0,159.0,,,,,,,[],,,,,,73.6,1.0,i,1.0,True,1133.2999999970198,68.0,60.0,40.0,False,,303.0532961339531,[],"[960, 540]",ColorTask,77.0,44.0,,,HRV,HRV_0004,2022-11-30 18:01:02
,wl-rdm,165,693876,0.0-8.44-0.44,1.0,160.0,,,,,,,[],,,,,,56.4,0.0,u,0.0,True,1051.7000000029802,64.0,60.0,40.0,False,,369.7722089733116,[],"[960, 540]",ColorTask,78.0,45.0,,,HRV,HRV_0004,2022-11-30 18:01:02
,wl-rdm,166,696193,0.0-8.45-0.45,1.0,161.0,,,,,,,[],,,,,,73.6,0.0,u,0.0,True,947.7999999970198,57.0,60.0,40.0,False,,292.0273127428683,[],"[960, 540]",ColorTask,79.0,46.0,,,HRV,HRV_0004,2022-11-30 18:01:02
,wl-rdm,167,698627,0.0-8.46-0.46,1.0,162.0,,,,,,,[],,,,,,50.0,1.0,i,1.0,True,1071.1000000014901,65.0,60.0,40.0,False,,280.6902481438459,[],"[960, 540]",ColorTask,80.0,47.0,,,HRV,HRV_0004,2022-11-30 18:01:02
,wl-rdm,168,701094,0.0-8.47-0.47,1.0,163.0,,,,,,,[],,,,,,50.0,1.0,u,0.0,False,1026.6000000014901,62.0,60.0,40.0,False,,364.2544209272305,[],"[960, 540]",ColorTask,79.0,48.0,,,HRV,HRV_0004,2022-11-30 18:01:02
,wl-rdm,169,703544,0.0-8.48-0.48,1.0,164.0,,,,,,,[],,,,,,50.0,1.0,u,0.0,False,1174.6000000014901,71.0,60.0,40.0,False,,204.65010929231775,[],"[960, 540]",ColorTask,78.0,49.0,,,HRV,HRV_0004,2022-11-30 18:01:02
,wl-rdm,170,706160,0.0-8.49-0.49,1.0,165.0,,,,,,,[],,,,,,56.4,0.0,u,0.0,True,1280.1000000014901,77.0,60.0,40.0,False,,271.1926057622379,[],"[960, 540]",ColorTask,79.0,50.0,,,HRV,HRV_0004,2022-11-30 18:01:02
,wl-rdm,171,708644,0.0-8.50-0.50,1.0,166.0,,,,,,,[],,,,,,53.2,1.0,i,1.0,True,1118.8000000044703,68.0,60.0,40.0,False,,298.2707804195996,[],"[960, 540]",ColorTask,80.0,51.0,,,HRV,HRV_0004,2022-11-30 18:01:02
,wl-rdm,172,711093,0.0-8.51-0.51,1.0,167.0,,,,,,,[],,,,,,87.9,0.0,u,0.0,True,1008.6000000014901,61.0,60.0,40.0,False,,353.92536571168387,[],"[960, 540]",ColorTask,81.0,52.0,,,HRV,HRV_0004,2022-11-30 18:01:02
,wl-rdm,173,713610,0.0-8.52-0.52,1.0,168.0,,,,,,,[],,,,,,53.2,0.0,u,0.0,True,1163.7000000029802,70.0,60.0,40.0,False,,272.65958594144763,[],"[960, 540]",ColorTask,82.0,53.0,,,HRV,HRV_0004,2022-11-30 18:01:02
,wl-rdm,174,716010,0.0-8.53-0.53,1.0,169.0,,,,,,,[],,,,,,73.6,0.0,u,0.0,True,1122.2000000029802,68.0,60.0,40.0,False,,212.95759925287086,[],"[960, 540]",ColorTask,83.0,54.0,,,HRV,HRV_0004,2022-11-30 18:01:02
,wl-rdm,175,718444,0.0-8.54-0.54,1.0,170.0,,,,,,,[],,,,,,87.9,1.0,i,1.0,True,1128.7999999895692,68.0,60.0,40.0,False,,217.7203704068727,[],"[960, 540]",ColorTask,84.0,55.0,,,HRV,HRV_0004,2022-11-30 18:01:02
,wl-rdm,176,721010,0.0-8.55-0.55,1.0,171.0,,,,,,,[],,,,,,62.5,0.0,u,0.0,True,1170.7999999970198,71.0,60.0,40.0,False,,324.2244516051927,[],"[960, 540]",ColorTask,85.0,56.0,,,HRV,HRV_0004,2022-11-30 18:01:02
,wl-rdm,177,723276,0.0-8.56-0.56,1.0,172.0,,,,,,,[],,,,,,87.9,1.0,i,1.0,True,953.2000000029802,58.0,60.0,40.0,False,,221.0366939587125,[],"[960, 540]",ColorTask,86.0,57.0,,,HRV,HRV_0004,2022-11-30 18:01:02
,wl-rdm,178,725593,0.0-8.57-0.57,1.0,173.0,,,,,,,[],,,,,,62.5,0.0,u,0.0,True,1022.6000000014901,62.0,60.0,40.0,False,,206.38660187621483,[],"[960, 540]",ColorTask,87.0,58.0,,,HRV,HRV_0004,2022-11-30 18:01:02
,wl-rdm,179,727977,0.0-8.58-0.58,1.0,174.0,,,,,,,[],,,,,,73.6,0.0,u,0.0,True,979.1000000014901,59.0,60.0,40.0,False,,346.87832377788374,[],"[960, 540]",ColorTask,88.0,59.0,,,HRV,HRV_0004,2022-11-30 18:01:02
,wl-rdm,180,730410,0.0-8.59-0.59,1.0,175.0,,,,,,,[],,,,,,53.2,1.0,u,0.0,False,1071.5999999940395,65.0,60.0,40.0,False,,292.5108231513499,[],"[960, 540]",ColorTask,87.0,60.0,,,HRV,HRV_0004,2022-11-30 18:01:02
,wl-rdm,181,732627,0.0-8.60-0.60,1.0,176.0,,,,,,,[],,,,,,73.6,0.0,u,0.0,True,888.7999999970198,54.0,60.0,40.0,False,,240.9917010174516,[],"[960, 540]",ColorTask,88.0,61.0,,,HRV,HRV_0004,2022-11-30 18:01:02
,wl-rdm,182,735193,0.0-8.61-0.61,1.0,177.0,,,,,,,[],,,,,,62.5,0.0,u,0.0,True,1155.2000000029802,70.0,60.0,40.0,False,,323.11561479075806,[],"[960, 540]",ColorTask,89.0,62.0,,,HRV,HRV_0004,2022-11-30 18:01:02
,wl-rdm,183,737626,0.0-8.62-0.62,1.0,178.0,,,,,,,[],,,,,,87.9,1.0,i,1.0,True,989.5,60.0,60.0,40.0,False,,365.18466039787086,[],"[960, 540]",ColorTask,90.0,63.0,,,HRV,HRV_0004,2022-11-30 18:01:02
,wl-rdm,184,740076,0.0-8.63-0.63,1.0,179.0,,,,,,,[],,,,,,62.5,1.0,i,1.0,True,1127.7999999970198,68.0,60.0,40.0,False,,236.82665924146784,[],"[960, 540]",ColorTask,91.0,64.0,,,HRV,HRV_0004,2022-11-30 18:01:02
,wl-rdm,185,742560,0.0-8.64-0.64,1.0,180.0,,,,,,,[],,,,,,56.4,1.0,u,0.0,False,1166.3999999985099,70.0,60.0,40.0,False,,249.838974724499,[],"[960, 540]",ColorTask,90.0,65.0,,,HRV,HRV_0004,2022-11-30 18:01:02
,wl-rdm,186,745010,0.0-8.65-0.65,1.0,181.0,,,,,,,[],,,,,,50.0,1.0,u,0.0,False,1022.6000000014901,62.0,60.0,40.0,False,,345.19362548285187,[],"[960, 540]",ColorTask,89.0,66.0,,,HRV,HRV_0004,2022-11-30 18:01:02
,wl-rdm,187,747526,0.0-8.66-0.66,1.0,182.0,,,,,,,[],,,,,,53.2,0.0,i,1.0,False,1165.0,70.0,60.0,40.0,False,,291.55155398952155,[],"[960, 540]",ColorTask,88.0,67.0,,,HRV,HRV_0004,2022-11-30 18:01:02
,wl-rdm,188,750060,0.0-8.67-0.67,1.0,183.0,,,,,,,[],,,,,,62.5,1.0,i,1.0,True,1144.6000000014901,69.0,60.0,40.0,False,,326.8727491951264,[],"[960, 540]",ColorTask,89.0,68.0,,,HRV,HRV_0004,2022-11-30 18:01:02
,wl-rdm,189,752959,0.0-8.68-0.68,1.0,184.0,,,,,,,[],,,,,,56.4,1.0,i,1.0,True,1501.6000000014901,91.0,60.0,40.0,False,,307.09261106028123,[],"[960, 540]",ColorTask,90.0,69.0,,,HRV,HRV_0004,2022-11-30 18:01:02
,wl-rdm,190,755726,0.0-8.69-0.69,1.0,185.0,,,,,,,[],,,,,,53.2,0.0,u,0.0,True,1368.7999999970198,83.0,60.0,40.0,False,,306.63613352334903,[],"[960, 540]",ColorTask,91.0,70.0,,,HRV,HRV_0004,2022-11-30 18:01:02
,wl-rdm,191,758459,0.0-8.70-0.70,1.0,186.0,,,,,,,[],,,,,,53.2,1.0,i,1.0,True,1253.8999999985099,76.0,60.0,40.0,False,,386.3364721099367,[],"[960, 540]",ColorTask,92.0,71.0,,,HRV,HRV_0004,2022-11-30 18:01:02
,wl-rdm,192,761075,0.0-8.71-0.71,1.0,187.0,,,,,,,[],,,,,,53.2,0.0,u,0.0,True,1321.1000000014901,80.0,60.0,40.0,False,,208.0205573452344,[],"[960, 540]",ColorTask,93.0,72.0,,,HRV,HRV_0004,2022-11-30 18:01:02
,wl-rdm,193,763725,0.0-8.72-0.72,1.0,188.0,,,,,,,[],,,,,,56.4,1.0,i,1.0,True,1285.5,78.0,60.0,40.0,False,,269.453060357891,[],"[960, 540]",ColorTask,94.0,73.0,,,HRV,HRV_0004,2022-11-30 18:01:02
,wl-rdm,194,766525,0.0-8.73-0.73,1.0,189.0,,,,,,,[],,,,,,56.4,0.0,i,1.0,False,1441.8999999985099,87.0,60.0,40.0,False,,274.82045829492836,[],"[960, 540]",ColorTask,93.0,74.0,,,HRV,HRV_0004,2022-11-30 18:01:02
,wl-rdm,195,768775,0.0-8.74-0.74,1.0,190.0,,,,,,,[],,,,,,87.9,1.0,i,1.0,True,981.0000000074506,59.0,60.0,40.0,False,,207.6780804127059,[],"[960, 540]",ColorTask,94.0,75.0,,,HRV,HRV_0004,2022-11-30 18:01:02
,wl-rdm,196,771092,0.0-8.75-0.75,1.0,191.0,,,,,,,[],,,,,,50.0,1.0,u,0.0,False,1043.5,63.0,60.0,40.0,False,,214.56055090350276,[],"[960, 540]",ColorTask,93.0,76.0,,,HRV,HRV_0004,2022-11-30 18:01:02
,wl-rdm,197,773708,0.0-8.76-0.76,1.0,192.0,,,,,,,[],,,,,,53.2,1.0,i,1.0,True,1192.7000000029802,72.0,60.0,40.0,False,,363.44318711768045,[],"[960, 540]",ColorTask,94.0,77.0,,,HRV,HRV_0004,2022-11-30 18:01:02
,wl-rdm,198,776442,0.0-8.77-0.77,1.0,193.0,,,,,,,[],,,,,,53.2,1.0,i,1.0,True,1304.6000000014901,79.0,60.0,40.0,False,,347.8669348900245,[],"[960, 540]",ColorTask,95.0,78.0,,,HRV,HRV_0004,2022-11-30 18:01:02
,wl-rdm,199,779342,0.0-8.78-0.78,1.0,194.0,,,,,,,[],,,,,,50.0,0.0,u,0.0,True,1598.8999999985099,96.0,60.0,40.0,False,,240.6207671388445,[],"[960, 540]",ColorTask,96.0,79.0,,,HRV,HRV_0004,2022-11-30 18:01:02
,wl-rdm,200,782025,0.0-8.79-0.79,1.0,195.0,,,,,,,[],,,,,,56.4,0.0,u,0.0,True,1323.2000000029802,80.0,60.0,40.0,False,,279.85862631931167,[],"[960, 540]",ColorTask,97.0,80.0,,,HRV,HRV_0004,2022-11-30 18:01:02
,wl-rdm,201,784642,0.0-8.80-0.80,1.0,196.0,,,,,,,[],,,,,,50.0,0.0,u,0.0,True,1305.2999999970198,79.0,60.0,40.0,False,,230.9461277947536,[],"[960, 540]",ColorTask,98.0,81.0,,,HRV,HRV_0004,2022-11-30 18:01:02
,wl-rdm,202,787392,0.0-8.81-0.81,1.0,197.0,,,,,,,[],,,,,,50.0,0.0,u,0.0,True,1440.7999999970198,87.0,60.0,40.0,False,,221.99486803316734,[],"[960, 540]",ColorTask,99.0,82.0,,,HRV,HRV_0004,2022-11-30 18:01:02
,wl-rdm,203,790542,0.0-8.82-0.82,1.0,198.0,,,,,,,[],,,,,,56.4,1.0,i,1.0,True,1684.8999999985099,102.0,60.0,40.0,False,,374.6579707407805,[],"[960, 540]",ColorTask,100.0,83.0,,,HRV,HRV_0004,2022-11-30 18:01:02
,wl-rdm,204,793442,0.0-8.83-0.83,1.0,199.0,,,,,,,[],,,,,,50.0,0.0,u,0.0,True,1547.1999999955297,93.0,60.0,40.0,False,,272.39492016587275,[],"[960, 540]",ColorTask,101.0,84.0,,,HRV,HRV_0004,2022-11-30 18:01:02
,wl-rdm,205,796108,0.0-8.84-0.84,1.0,200.0,,,,,,,[],,,,,,87.9,0.0,u,0.0,True,1227.2000000029802,74.0,60.0,40.0,False,,358.16650473812274,[],"[960, 540]",ColorTask,102.0,85.0,,,HRV,HRV_0004,2022-11-30 18:01:02
,wl-rdm,206,798691,0.0-8.85-0.85,1.0,201.0,,,,,,,[],,,,,,62.5,0.0,u,0.0,True,1243.8000000044703,75.0,60.0,40.0,False,,279.2017611817582,[],"[960, 540]",ColorTask,103.0,86.0,,,HRV,HRV_0004,2022-11-30 18:01:02
,wl-rdm,207,801742,0.0-8.86-0.86,1.0,202.0,,,,,,,[],,,,,,50.0,0.0,i,1.0,False,1726.3999999985099,104.0,60.0,40.0,False,,239.4375050540894,[],"[960, 540]",ColorTask,102.0,87.0,,,HRV,HRV_0004,2022-11-30 18:01:02
,wl-rdm,208,804325,0.0-8.87-0.87,1.0,203.0,,,,,,,[],,,,,,87.9,1.0,i,1.0,True,1159.3999999985099,70.0,60.0,40.0,False,,356.1898885413512,[],"[960, 540]",ColorTask,103.0,88.0,,,HRV,HRV_0004,2022-11-30 18:01:02
,wl-rdm,209,806775,0.0-8.88-0.88,1.0,204.0,,,,,,,[],,,,,,73.6,1.0,i,1.0,True,1133.1000000014901,68.0,60.0,40.0,False,,247.22989261692558,[],"[960, 540]",ColorTask,104.0,89.0,,,HRV,HRV_0004,2022-11-30 18:01:02
,wl-rdm,210,809758,0.0-8.89-0.89,1.0,205.0,,,,,,,[],,,,,,56.4,0.0,u,0.0,True,1580.7999999970198,95.0,60.0,40.0,False,,335.8115354300238,[],"[960, 540]",ColorTask,105.0,90.0,,,HRV,HRV_0004,2022-11-30 18:01:02
,wl-rdm,211,812508,0.0-8.90-0.90,1.0,206.0,,,,,,,[],,,,,,53.2,1.0,i,1.0,True,1411.3000000044703,85.0,60.0,40.0,False,,258.02247630016564,[],"[960, 540]",ColorTask,106.0,91.0,,,HRV,HRV_0004,2022-11-30 18:01:02
,wl-rdm,212,814975,0.0-8.91-0.91,1.0,207.0,,,,,,,[],,,,,,87.9,0.0,u,0.0,True,1008.8999999985099,61.0,60.0,40.0,False,,367.92440359021145,[],"[960, 540]",ColorTask,107.0,92.0,,,HRV,HRV_0004,2022-11-30 18:01:02
,wl-rdm,213,817258,0.0-8.92-0.92,1.0,208.0,,,,,,,[],,,,,,53.2,1.0,i,1.0,True,860.8000000044703,52.0,60.0,40.0,False,,364.6325306253646,[],"[960, 540]",ColorTask,108.0,93.0,,,HRV,HRV_0004,2022-11-30 18:01:02
,wl-rdm,214,819658,0.0-8.93-0.93,1.0,209.0,,,,,,,[],,,,,,62.5,1.0,i,1.0,True,987.5,60.0,60.0,40.0,False,,333.01182199083047,[],"[960, 540]",ColorTask,109.0,94.0,,,HRV,HRV_0004,2022-11-30 18:01:02
,wl-rdm,215,821891,0.0-8.94-0.94,1.0,210.0,,,,,,,[],,,,,,50.0,1.0,u,0.0,False,887.3000000044703,54.0,60.0,40.0,False,,257.3338282554525,[],"[960, 540]",ColorTask,108.0,95.0,,,HRV,HRV_0004,2022-11-30 18:01:02
,wl-rdm,216,824074,0.0-8.95-0.95,1.0,211.0,,,,,,,[],,,,,,73.6,1.0,i,1.0,True,854.3999999985099,52.0,60.0,40.0,False,,245.31310285013336,[],"[960, 540]",ColorTask,109.0,96.0,,,HRV,HRV_0004,2022-11-30 18:01:02
,wl-rdm,217,826291,0.0-8.96-0.96,1.0,212.0,,,,,,,[],,,,,,87.9,0.0,u,0.0,True,903.8999999910593,55.0,60.0,40.0,False,,232.70667311758922,[],"[960, 540]",ColorTask,110.0,97.0,,,HRV,HRV_0004,2022-11-30 18:01:02
,wl-rdm,218,828558,0.0-8.97-0.97,1.0,213.0,,,,,,,[],,,,,,62.5,0.0,u,0.0,True,907.7999999970198,55.0,60.0,40.0,False,,276.9836557245225,[],"[960, 540]",ColorTask,111.0,98.0,,,HRV,HRV_0004,2022-11-30 18:01:02
,wl-rdm,219,830874,0.0-8.98-0.98,1.0,214.0,,,,,,,[],,,,,,62.5,0.0,u,0.0,True,976.5,59.0,60.0,40.0,False,,272.41557077671524,[],"[960, 540]",ColorTask,112.0,99.0,,,HRV,HRV_0004,2022-11-30 18:01:02
,wl-rdm,220,833074,0.0-8.99-0.99,1.0,215.0,,,,,,,[],,,,,,87.9,0.0,u,0.0,True,860.3999999985099,52.0,60.0,40.0,False,,277.6624021403154,[],"[960, 540]",ColorTask,113.0,100.0,,,HRV,HRV_0004,2022-11-30 18:01:02
,wl-rdm,221,835714,0.0-8.100-0.100,1.0,216.0,,,,,,,[],,,,,,53.2,0.0,i,1.0,False,1345.1000000014901,81.0,60.0,40.0,False,,200.78353518418166,[],"[960, 540]",ColorTask,112.0,101.0,,,HRV,HRV_0004,2022-11-30 18:01:02
,wl-rdm,222,838224,0.0-8.101-0.101,1.0,217.0,,,,,,,[],,,,,,62.5,1.0,i,1.0,True,1123.3000000044703,68.0,60.0,40.0,False,,321.89749910889,[],"[960, 540]",ColorTask,113.0,102.0,,,HRV,HRV_0004,2022-11-30 18:01:02
,wl-rdm,223,840841,0.0-8.102-0.102,1.0,218.0,,,,,,,[],,,,,,56.4,0.0,u,0.0,True,1305.8999999985099,79.0,60.0,40.0,False,,225.06268059582737,[],"[960, 540]",ColorTask,114.0,103.0,,,HRV,HRV_0004,2022-11-30 18:01:02
,wl-rdm,224,843341,0.0-8.103-0.103,1.0,219.0,,,,,,,[],,,,,,50.0,1.0,i,1.0,True,1092.5,66.0,60.0,40.0,False,,349.08345779520397,[],"[960, 540]",ColorTask,115.0,104.0,,,HRV,HRV_0004,2022-11-30 18:01:02
,wl-rdm,225,846257,0.0-8.104-0.104,1.0,220.0,,,,,,,[],,,,,,50.0,0.0,i,1.0,False,1539.0,93.0,60.0,40.0,False,,283.9909832300734,[],"[960, 540]",ColorTask,114.0,105.0,,,HRV,HRV_0004,2022-11-30 18:01:02
,wl-rdm,226,849774,0.0-8.105-0.105,1.0,221.0,,,,,,,[],,,,,,50.0,0.0,i,1.0,False,2225.89999999851,134.0,60.0,40.0,False,,209.37087377763692,[],"[960, 540]",ColorTask,113.0,106.0,,,HRV,HRV_0004,2022-11-30 18:01:02
,wl-rdm,227,853174,0.0-8.106-0.106,1.0,222.0,,,,,,,[],,,,,,53.2,0.0,u,0.0,True,1924.1999999955297,116.0,60.0,40.0,False,,394.5540854131622,[],"[960, 540]",ColorTask,114.0,107.0,,,HRV,HRV_0004,2022-11-30 18:01:02
,wl-rdm,228,855741,0.0-8.107-0.107,1.0,223.0,,,,,,,[],,,,,,87.9,0.0,u,0.0,True,1252.3999999985099,76.0,60.0,40.0,False,,247.77232423618796,[],"[960, 540]",ColorTask,115.0,108.0,,,HRV,HRV_0004,2022-11-30 18:01:02
,wl-html-button-response,229,858674,0.0-9.0-0.0,,,,,,,,,,2927.5,,0,,,,,,,,,,,,,,,,,,,,<h3>End of this session. Thank you!</h3><br>,['Close window'],HRV,HRV_0004,2022-11-30 18:01:02
