trialN,stimuli,trialStartTime,trialStartTime_UNIX,stimulus1,stimulus2,stimulus1Bid,stimulus2Bid,delta,selected,rt,rt_UNIX,rt_perfnow,receivedResponse,rsp,trialEndTime,trialDuration,trialEndTime_UNIX,trialDuration_UNIX,exp,subjectId,date
0,"[{'imgObject': {}, 'id': 'bagel and cc', 'src': '/static/foodstim60/bagel and cc.jpg', 'key': 'u', 'origWidth': 410, 'origHeight': 410, 'width': 410, 'height': 410, 'widthPercent': 0.45, 'rescaleHeight': False, 'trialN': 0, 'loaded': True, 'loadedTime': 2116.39999999851, 'positionName': 'LEFT', 'positionCoords': [511.6, 335], 'bid': 0.07}, {'imgObject': {}, 'id': 'Tribe humus pita', 'src': '/static/foodstim60/Tribe humus pita.jpg', 'key': 'i', 'origWidth': 411, 'origHeight': 411, 'width': 411, 'height': 411, 'widthPercent': 0.45, 'rescaleHeight': False, 'trialN': 0, 'loaded': True, 'loadedTime': 2163.6999999955297, 'positionName': 'RIGHT', 'positionCoords': [998.4, 334.5], 'bid': 0.07}]",2422.0999999940395,1669829193124,bagel and cc,Tribe humus pita,0.07,0.07,0.0,bagel and cc,1727.9000000059605,1729,1728.8000000044703,True,u,4672.19999999553,2250.10000000149,1669829195374,2250,HRV,HRV_0004,2022-11-30 17:31:50
1,"[{'imgObject': {}, 'id': 'fruitsalad', 'src': '/static/foodstim60/fruitsalad.jpg', 'key': 'u', 'origWidth': 410, 'origHeight': 410, 'width': 410, 'height': 410, 'widthPercent': 0.45, 'rescaleHeight': False, 'trialN': 1, 'loaded': True, 'loadedTime': 2163.7999999970198, 'positionName': 'LEFT', 'positionCoords': [511.6, 335], 'bid': 0.05}, {'imgObject': {}, 'id': 'blackbeanswithrice', 'src': '/static/foodstim60/blackbeanswithrice.jpg', 'key': 'i', 'origWidth': 410, 'origHeight': 410, 'width': 410, 'height': 410, 'widthPercent': 0.45, 'rescaleHeight': False, 'trialN': 1, 'loaded': True, 'loadedTime': 2175.5, 'positionName': 'RIGHT', 'positionCoords': [998.4, 335], 'bid': 0.06}]",4672.5999999940395,1669829195374,fruitsalad,blackbeanswithrice,0.05,0.06,0.009999999999999995,fruitsalad,1245.4000000059605,1246,1246.1000000014901,True,u,6426.79999999702,1754.2000000029802,1669829197129,1755,HRV,HRV_0004,2022-11-30 17:31:50
2,"[{'imgObject': {}, 'id': 'corn cob', 'src': '/static/foodstim60/corn cob.jpg', 'key': 'u', 'origWidth': 411, 'origHeight': 411, 'width': 411, 'height': 411, 'widthPercent': 0.45, 'rescaleHeight': False, 'trialN': 2, 'loaded': True, 'loadedTime': 2184.89999999851, 'positionName': 'LEFT', 'positionCoords': [510.6, 334.5], 'bid': 0.01}, {'imgObject': {}, 'id': 'hashbrowns', 'src': '/static/foodstim60/hashbrowns.jpg', 'key': 'i', 'origWidth': 411, 'origHeight': 410, 'width': 411, 'height': 410, 'widthPercent': 0.45, 'rescaleHeight': False, 'trialN': 2, 'loaded': True, 'loadedTime': 2193, 'positionName': 'RIGHT', 'positionCoords': [998.4, 335], 'bid': 0.03}]",6427.0999999940395,1669829197129,corn cob,hashbrowns,0.01,0.03,0.019999999999999997,corn cob,1482.8000000044703,1483,1483.2000000029802,True,u,8431.59999999404,2004.5,1669829199133,2004,HRV,HRV_0004,2022-11-30 17:31:50
3,"[{'imgObject': {}, 'id': 'seaweed', 'src': '/static/foodstim60/seaweed.jpg', 'key': 'u', 'origWidth': 410, 'origHeight': 410, 'width': 410, 'height': 410, 'widthPercent': 0.45, 'rescaleHeight': False, 'trialN': 3, 'loaded': True, 'loadedTime': 2202.2999999970198, 'positionName': 'LEFT', 'positionCoords': [511.6, 335], 'bid': 0.03}, {'imgObject': {}, 'id': 'kiwi', 'src': '/static/foodstim60/kiwi.jpg', 'key': 'i', 'origWidth': 410, 'origHeight': 410, 'width': 410, 'height': 410, 'widthPercent': 0.45, 'rescaleHeight': False, 'trialN': 3, 'loaded': True, 'loadedTime': 2217.5999999940395, 'positionName': 'RIGHT', 'positionCoords': [998.4, 335], 'bid': 0.03}]",8432.09999999404,1669829199134,seaweed,kiwi,0.03,0.03,0.0,kiwi,1149.9000000059605,1150,1150.4000000059605,True,i,10101.69999999553,1669.6000000014901,1669829200803,1669,HRV,HRV_0004,2022-11-30 17:31:50
4,"[{'imgObject': {}, 'id': 'mac & cheese', 'src': '/static/foodstim60/mac & cheese.jpg', 'key': 'u', 'origWidth': 410, 'origHeight': 410, 'width': 410, 'height': 410, 'widthPercent': 0.45, 'rescaleHeight': False, 'trialN': 4, 'loaded': True, 'loadedTime': 2227.0999999940395, 'positionName': 'LEFT', 'positionCoords': [511.6, 335], 'bid': 0.09}, {'imgObject': {}, 'id': 'grilled chicken strips', 'src': '/static/foodstim60/grilled chicken strips.jpg', 'key': 'i', 'origWidth': 410, 'origHeight': 411, 'width': 410, 'height': 411, 'widthPercent': 0.45, 'rescaleHeight': False, 'trialN': 4, 'loaded': True, 'loadedTime': 2227.1999999955297, 'positionName': 'RIGHT', 'positionCoords': [998.4, 334.5], 'bid': 0.05}]",10102.09999999404,1669829200804,mac & cheese,grilled chicken strips,0.09,0.05,-0.039999999999999994,grilled chicken strips,1424.6000000014901,1425,1424.9000000059605,True,i,12035.69999999553,1933.6000000014901,1669829202737,1933,HRV,HRV_0004,2022-11-30 17:31:50
5,"[{'imgObject': {}, 'id': 'shreddedwheatwithmilk', 'src': '/static/foodstim60/shreddedwheatwithmilk.jpg', 'key': 'u', 'origWidth': 410, 'origHeight': 410, 'width': 410, 'height': 410, 'widthPercent': 0.45, 'rescaleHeight': False, 'trialN': 5, 'loaded': True, 'loadedTime': 2235.6999999955297, 'positionName': 'LEFT', 'positionCoords': [511.6, 335], 'bid': 0.12}, {'imgObject': {}, 'id': 'roastedpotatoes', 'src': '/static/foodstim60/roastedpotatoes.jpg', 'key': 'i', 'origWidth': 409, 'origHeight': 410, 'width': 409, 'height': 410, 'widthPercent': 0.45, 'rescaleHeight': False, 'trialN': 5, 'loaded': True, 'loadedTime': 2250.5, 'positionName': 'RIGHT', 'positionCoords': [998.4, 335], 'bid': 9.8}]",12036.0,1669829202738,shreddedwheatwithmilk,roastedpotatoes,0.12,9.8,9.680000000000001,roastedpotatoes,1242.0,1242,1242.3999999985099,True,i,13788.79999999702,1752.7999999970198,1669829204491,1753,HRV,HRV_0004,2022-11-30 17:31:50
6,"[{'imgObject': {}, 'id': 'chicken nuggets2', 'src': '/static/foodstim60/chicken nuggets2.jpg', 'key': 'u', 'origWidth': 410, 'origHeight': 409, 'width': 410, 'height': 409, 'widthPercent': 0.45, 'rescaleHeight': False, 'trialN': 6, 'loaded': True, 'loadedTime': 2255.39999999851, 'positionName': 'LEFT', 'positionCoords': [511.6, 335.5], 'bid': 5.01}, {'imgObject': {}, 'id': 'cherry tomato', 'src': '/static/foodstim60/cherry tomato.jpg', 'key': 'i', 'origWidth': 410, 'origHeight': 410, 'width': 410, 'height': 410, 'widthPercent': 0.45, 'rescaleHeight': False, 'trialN': 6, 'loaded': True, 'loadedTime': 2265.1999999955297, 'positionName': 'RIGHT', 'positionCoords': [998.4, 335], 'bid': 0.1}]",13789.0,1669829204491,chicken nuggets2,cherry tomato,5.01,0.1,-4.91,chicken nuggets2,808.2999999970198,808,808.7999999970198,True,u,15108.69999999553,1319.6999999955297,1669829205810,1319,HRV,HRV_0004,2022-11-30 17:31:50
7,"[{'imgObject': {}, 'id': 'eggs', 'src': '/static/foodstim60/eggs.jpg', 'key': 'u', 'origWidth': 409, 'origHeight': 409, 'width': 409, 'height': 409, 'widthPercent': 0.45, 'rescaleHeight': False, 'trialN': 7, 'loaded': True, 'loadedTime': 2274.39999999851, 'positionName': 'LEFT', 'positionCoords': [512.6, 335.5], 'bid': 9.91}, {'imgObject': {}, 'id': 'Grapes', 'src': '/static/foodstim60/Grapes.jpg', 'key': 'i', 'origWidth': 411, 'origHeight': 411, 'width': 411, 'height': 411, 'widthPercent': 0.45, 'rescaleHeight': False, 'trialN': 7, 'loaded': True, 'loadedTime': 2278.89999999851, 'positionName': 'RIGHT', 'positionCoords': [998.4, 334.5], 'bid': 5}]",15109.09999999404,1669829205811,eggs,Grapes,9.91,5.0,-4.91,eggs,1273.0,1273,1273.5,True,u,16897.59999999404,1788.5,1669829207600,1789,HRV,HRV_0004,2022-11-30 17:31:50
8,"[{'imgObject': {}, 'id': 'hotdog w must', 'src': '/static/foodstim60/hotdog w must.jpg', 'key': 'u', 'origWidth': 409, 'origHeight': 409, 'width': 409, 'height': 409, 'widthPercent': 0.45, 'rescaleHeight': False, 'trialN': 8, 'loaded': True, 'loadedTime': 2293.7999999970198, 'positionName': 'LEFT', 'positionCoords': [512.6, 335.5], 'bid': 0.1}, {'imgObject': {}, 'id': 'salmon', 'src': '/static/foodstim60/salmon.jpg', 'key': 'i', 'origWidth': 410, 'origHeight': 409, 'width': 410, 'height': 409, 'widthPercent': 0.45, 'rescaleHeight': False, 'trialN': 8, 'loaded': True, 'loadedTime': 2124.2999999970198, 'positionName': 'RIGHT', 'positionCoords': [998.4, 335.5], 'bid': 0.12}]",16897.89999999851,1669829207600,hotdog w must,salmon,0.1,0.12,0.01999999999999999,salmon,940.0,940,940.3999999985099,True,i,18360.69999999553,1462.7999999970198,1669829209062,1462,HRV,HRV_0004,2022-11-30 17:31:50
9,"[{'imgObject': {}, 'id': 'lox', 'src': '/static/foodstim60/lox.jpg', 'key': 'u', 'origWidth': 410, 'origHeight': 411, 'width': 410, 'height': 411, 'widthPercent': 0.45, 'rescaleHeight': False, 'trialN': 9, 'loaded': True, 'loadedTime': 2137.6999999955297, 'positionName': 'LEFT', 'positionCoords': [511.6, 334.5], 'bid': 0.17}, {'imgObject': {}, 'id': 'omelette', 'src': '/static/foodstim60/omelette.jpg', 'key': 'i', 'origWidth': 410, 'origHeight': 409, 'width': 410, 'height': 409, 'widthPercent': 0.45, 'rescaleHeight': False, 'trialN': 9, 'loaded': True, 'loadedTime': 2154.2999999970198, 'positionName': 'RIGHT', 'positionCoords': [998.4, 335.5], 'bid': 0.12}]",18361.0,1669829209063,lox,omelette,0.17,0.12,-0.05000000000000002,omelette,1293.5999999940395,1294,1294.0,True,i,20173.59999999404,1812.5999999940395,1669829210875,1812,HRV,HRV_0004,2022-11-30 17:31:50
10,"[{'imgObject': {}, 'id': 'raspberries', 'src': '/static/foodstim60/raspberries.jpg', 'key': 'u', 'origWidth': 411, 'origHeight': 411, 'width': 411, 'height': 411, 'widthPercent': 0.45, 'rescaleHeight': False, 'trialN': 10, 'loaded': True, 'loadedTime': 2207.89999999851, 'positionName': 'LEFT', 'positionCoords': [510.6, 334.5], 'bid': 0.13}, {'imgObject': {}, 'id': 'apple slices', 'src': '/static/foodstim60/apple slices.jpg', 'key': 'i', 'origWidth': 409, 'origHeight': 410, 'width': 409, 'height': 410, 'widthPercent': 0.45, 'rescaleHeight': False, 'trialN': 10, 'loaded': True, 'loadedTime': 2240.6999999955297, 'positionName': 'RIGHT', 'positionCoords': [998.4, 335], 'bid': 5.0600000000000005}]",20174.19999999553,1669829210876,raspberries,apple slices,0.13,5.0600000000000005,4.930000000000001,apple slices,1279.0,1279,1279.3999999985099,True,i,21955.69999999553,1781.5,1669829212658,1782,HRV,HRV_0004,2022-11-30 17:31:50
11,"[{'imgObject': {}, 'id': 'cantaloupe', 'src': '/static/foodstim60/cantaloupe.jpg', 'key': 'u', 'origWidth': 409, 'origHeight': 409, 'width': 409, 'height': 409, 'widthPercent': 0.45, 'rescaleHeight': False, 'trialN': 11, 'loaded': True, 'loadedTime': 2284.1999999955297, 'positionName': 'LEFT', 'positionCoords': [512.6, 335.5], 'bid': 0.09}, {'imgObject': {}, 'id': 'omelette', 'src': '/static/foodstim60/omelette.jpg', 'key': 'i', 'origWidth': 410, 'origHeight': 409, 'width': 410, 'height': 409, 'widthPercent': 0.45, 'rescaleHeight': False, 'trialN': 11, 'loaded': True, 'loadedTime': 2154.0999999940395, 'positionName': 'RIGHT', 'positionCoords': [998.4, 335.5], 'bid': 0.12}]",21956.0,1669829212658,cantaloupe,omelette,0.09,0.12,0.03,omelette,1090.2999999970198,1091,1090.7999999970198,True,i,23564.59999999404,1608.5999999940395,1669829214266,1608,HRV,HRV_0004,2022-11-30 17:31:50
12,"[{'imgObject': {}, 'id': 'strawberries', 'src': '/static/foodstim60/strawberries.jpg', 'key': 'u', 'origWidth': 410, 'origHeight': 410, 'width': 410, 'height': 410, 'widthPercent': 0.45, 'rescaleHeight': False, 'trialN': 12, 'loaded': True, 'loadedTime': 2294.7999999970198, 'positionName': 'LEFT', 'positionCoords': [511.6, 335], 'bid': 8.69}, {'imgObject': {}, 'id': 'froot loops w milk', 'src': '/static/foodstim60/froot loops w milk.jpg', 'key': 'i', 'origWidth': 410, 'origHeight': 410, 'width': 410, 'height': 410, 'widthPercent': 0.45, 'rescaleHeight': False, 'trialN': 12, 'loaded': True, 'loadedTime': 2304, 'positionName': 'RIGHT', 'positionCoords': [998.4, 335], 'bid': 7.5}]",23564.89999999851,1669829214267,strawberries,froot loops w milk,8.69,7.5,-1.1899999999999995,strawberries,1569.1000000014901,1569,1569.5,True,u,25656.29999999702,2091.39999999851,1669829216358,2091,HRV,HRV_0004,2022-11-30 17:31:50
13,"[{'imgObject': {}, 'id': 'hashbrowns', 'src': '/static/foodstim60/hashbrowns.jpg', 'key': 'u', 'origWidth': 411, 'origHeight': 410, 'width': 411, 'height': 410, 'widthPercent': 0.45, 'rescaleHeight': False, 'trialN': 13, 'loaded': True, 'loadedTime': 2188.89999999851, 'positionName': 'LEFT', 'positionCoords': [510.6, 335], 'bid': 0.03}, {'imgObject': {}, 'id': 'cherries', 'src': '/static/foodstim60/cherries.jpg', 'key': 'i', 'origWidth': 410, 'origHeight': 411, 'width': 410, 'height': 411, 'widthPercent': 0.45, 'rescaleHeight': False, 'trialN': 13, 'loaded': True, 'loadedTime': 2312.7999999970198, 'positionName': 'RIGHT', 'positionCoords': [998.4, 334.5], 'bid': 0.02}]",25656.5,1669829216358,hashbrowns,cherries,0.03,0.02,-0.009999999999999998,hashbrowns,1364.8999999985099,1366,1365.2999999970198,True,u,27534.0,1877.5,1669829218236,1878,HRV,HRV_0004,2022-11-30 17:31:50
14,"[{'imgObject': {}, 'id': 'orange slices', 'src': '/static/foodstim60/orange slices.jpg', 'key': 'u', 'origWidth': 409, 'origHeight': 410, 'width': 409, 'height': 410, 'widthPercent': 0.45, 'rescaleHeight': False, 'trialN': 14, 'loaded': True, 'loadedTime': 2313.7999999970198, 'positionName': 'LEFT', 'positionCoords': [512.6, 335], 'bid': 0}, {'imgObject': {}, 'id': 'burrito', 'src': '/static/foodstim60/burrito.jpg', 'key': 'i', 'origWidth': 410, 'origHeight': 410, 'width': 410, 'height': 410, 'widthPercent': 0.45, 'rescaleHeight': False, 'trialN': 14, 'loaded': True, 'loadedTime': 2318.7999999970198, 'positionName': 'RIGHT', 'positionCoords': [998.4, 335], 'bid': 0}]",27534.19999999553,1669829218236,orange slices,burrito,0.0,0.0,0.0,burrito,1983.7000000029802,1984,1984.2000000029802,True,i,30040.5,2506.3000000044703,1669829220742,2506,HRV,HRV_0004,2022-11-30 17:31:50
15,"[{'imgObject': {}, 'id': 'cherry tomato', 'src': '/static/foodstim60/cherry tomato.jpg', 'key': 'u', 'origWidth': 410, 'origHeight': 410, 'width': 410, 'height': 410, 'widthPercent': 0.45, 'rescaleHeight': False, 'trialN': 15, 'loaded': True, 'loadedTime': 2265, 'positionName': 'LEFT', 'positionCoords': [511.6, 335], 'bid': 0.1}, {'imgObject': {}, 'id': 'yogurt no spoon', 'src': '/static/foodstim60/yogurt no spoon.jpg', 'key': 'i', 'origWidth': 411, 'origHeight': 410, 'width': 411, 'height': 410, 'widthPercent': 0.45, 'rescaleHeight': False, 'trialN': 15, 'loaded': True, 'loadedTime': 2324.0999999940395, 'positionName': 'RIGHT', 'positionCoords': [998.4, 335], 'bid': 0.08}]",30040.69999999553,1669829220743,cherry tomato,yogurt no spoon,0.1,0.08,-0.020000000000000004,yogurt no spoon,1565.5,1565,1566.0,True,i,32126.69999999553,2086.0,1669829222828,2085,HRV,HRV_0004,2022-11-30 17:31:50
16,"[{'imgObject': {}, 'id': 'blueberries', 'src': '/static/foodstim60/blueberries.jpg', 'key': 'u', 'origWidth': 411, 'origHeight': 411, 'width': 411, 'height': 411, 'widthPercent': 0.45, 'rescaleHeight': False, 'trialN': 16, 'loaded': True, 'loadedTime': 2325.1999999955297, 'positionName': 'LEFT', 'positionCoords': [510.6, 334.5], 'bid': 0.12}, {'imgObject': {}, 'id': 'strawberries', 'src': '/static/foodstim60/strawberries.jpg', 'key': 'i', 'origWidth': 410, 'origHeight': 410, 'width': 410, 'height': 410, 'widthPercent': 0.45, 'rescaleHeight': False, 'trialN': 16, 'loaded': True, 'loadedTime': 2298.89999999851, 'positionName': 'RIGHT', 'positionCoords': [998.4, 335], 'bid': 8.69}]",32127.0,1669829222829,blueberries,strawberries,0.12,8.69,8.57,strawberries,767.0999999940395,768,767.6999999955297,True,i,33414.29999999702,1287.2999999970198,1669829224116,1287,HRV,HRV_0004,2022-11-30 17:31:50
17,"[{'imgObject': {}, 'id': 'luckycharms', 'src': '/static/foodstim60/luckycharms.jpg', 'key': 'u', 'origWidth': 410, 'origHeight': 409, 'width': 410, 'height': 409, 'widthPercent': 0.45, 'rescaleHeight': False, 'trialN': 17, 'loaded': True, 'loadedTime': 2330.39999999851, 'positionName': 'LEFT', 'positionCoords': [511.6, 335.5], 'bid': 8.98}, {'imgObject': {}, 'id': 'strawberries', 'src': '/static/foodstim60/strawberries.jpg', 'key': 'i', 'origWidth': 410, 'origHeight': 410, 'width': 410, 'height': 410, 'widthPercent': 0.45, 'rescaleHeight': False, 'trialN': 17, 'loaded': True, 'loadedTime': 2294.7999999970198, 'positionName': 'RIGHT', 'positionCoords': [998.4, 335], 'bid': 8.69}]",33414.5,1669829224116,luckycharms,strawberries,8.98,8.69,-0.2900000000000009,luckycharms,1157.8999999985099,1158,1158.0999999940395,True,u,35083.5,1669.0,1669829225785,1669,HRV,HRV_0004,2022-11-30 17:31:50
18,"[{'imgObject': {}, 'id': 'cocktailshrimp', 'src': '/static/foodstim60/cocktailshrimp.jpg', 'key': 'u', 'origWidth': 410, 'origHeight': 410, 'width': 410, 'height': 410, 'widthPercent': 0.45, 'rescaleHeight': False, 'trialN': 18, 'loaded': True, 'loadedTime': 2334.7999999970198, 'positionName': 'LEFT', 'positionCoords': [511.6, 335], 'bid': 9.97}, {'imgObject': {}, 'id': 'turkey sandwich', 'src': '/static/foodstim60/turkey sandwich.jpg', 'key': 'i', 'origWidth': 409, 'origHeight': 409, 'width': 409, 'height': 409, 'widthPercent': 0.45, 'rescaleHeight': False, 'trialN': 18, 'loaded': True, 'loadedTime': 2344.0999999940395, 'positionName': 'RIGHT', 'positionCoords': [998.4, 335.5], 'bid': 9.95}]",35083.59999999404,1669829225786,cocktailshrimp,turkey sandwich,9.97,9.95,-0.02000000000000135,cocktailshrimp,1938.1000000014901,1938,1938.7000000029802,True,u,37545.69999999553,2462.10000000149,1669829228248,2462,HRV,HRV_0004,2022-11-30 17:31:50
19,"[{'imgObject': {}, 'id': 'cheerios', 'src': '/static/foodstim60/cheerios.jpg', 'key': 'u', 'origWidth': 409, 'origHeight': 410, 'width': 409, 'height': 410, 'widthPercent': 0.45, 'rescaleHeight': False, 'trialN': 19, 'loaded': True, 'loadedTime': 2349.1999999955297, 'positionName': 'LEFT', 'positionCoords': [512.6, 335], 'bid': 4.96}, {'imgObject': {}, 'id': 'lox', 'src': '/static/foodstim60/lox.jpg', 'key': 'i', 'origWidth': 410, 'origHeight': 411, 'width': 410, 'height': 411, 'widthPercent': 0.45, 'rescaleHeight': False, 'trialN': 19, 'loaded': True, 'loadedTime': 2138.2999999970198, 'positionName': 'RIGHT', 'positionCoords': [998.4, 334.5], 'bid': 0.17}]",37545.89999999851,1669829228248,cheerios,lox,4.96,0.17,-4.79,cheerios,1235.6000000014901,1236,1235.8999999985099,True,u,39287.59999999404,1741.6999999955297,1669829229989,1741,HRV,HRV_0004,2022-11-30 17:31:50
20,"[{'imgObject': {}, 'id': 'cherries', 'src': '/static/foodstim60/cherries.jpg', 'key': 'u', 'origWidth': 410, 'origHeight': 411, 'width': 410, 'height': 411, 'widthPercent': 0.45, 'rescaleHeight': False, 'trialN': 20, 'loaded': True, 'loadedTime': 2308.5, 'positionName': 'LEFT', 'positionCoords': [511.6, 334.5], 'bid': 0.02}, {'imgObject': {}, 'id': 'sushi w_condiments', 'src': '/static/foodstim60/sushi w_condiments.jpg', 'key': 'i', 'origWidth': 410, 'origHeight': 410, 'width': 410, 'height': 410, 'widthPercent': 0.45, 'rescaleHeight': False, 'trialN': 20, 'loaded': True, 'loadedTime': 2349.1999999955297, 'positionName': 'RIGHT', 'positionCoords': [998.4, 335], 'bid': 0.07}]",39288.0,1669829229990,cherries,sushi w_condiments,0.02,0.07,0.05,cherries,1861.5999999940395,1862,1862.0999999940395,True,u,41659.79999999702,2371.7999999970198,1669829232362,2372,HRV,HRV_0004,2022-11-30 17:31:50
21,"[{'imgObject': {}, 'id': 'cantaloupe', 'src': '/static/foodstim60/cantaloupe.jpg', 'key': 'u', 'origWidth': 409, 'origHeight': 409, 'width': 409, 'height': 409, 'widthPercent': 0.45, 'rescaleHeight': False, 'trialN': 21, 'loaded': True, 'loadedTime': 2283.7999999970198, 'positionName': 'LEFT', 'positionCoords': [512.6, 335.5], 'bid': 0.09}, {'imgObject': {}, 'id': 'hotdog w must', 'src': '/static/foodstim60/hotdog w must.jpg', 'key': 'i', 'origWidth': 409, 'origHeight': 409, 'width': 409, 'height': 409, 'widthPercent': 0.45, 'rescaleHeight': False, 'trialN': 21, 'loaded': True, 'loadedTime': 2290, 'positionName': 'RIGHT', 'positionCoords': [998.4, 335.5], 'bid': 0.1}]",41660.0,1669829232362,cantaloupe,hotdog w must,0.09,0.1,0.010000000000000009,cantaloupe,1321.6999999955297,1322,1322.0999999940395,True,u,43497.0,1837.0,1669829234199,1837,HRV,HRV_0004,2022-11-30 17:31:50
22,"[{'imgObject': {}, 'id': 'mango', 'src': '/static/foodstim60/mango.jpg', 'key': 'u', 'origWidth': 411, 'origHeight': 411, 'width': 411, 'height': 411, 'widthPercent': 0.45, 'rescaleHeight': False, 'trialN': 22, 'loaded': True, 'loadedTime': 2359.6999999955297, 'positionName': 'LEFT', 'positionCoords': [510.6, 334.5], 'bid': 0.04}, {'imgObject': {}, 'id': 'raspberries', 'src': '/static/foodstim60/raspberries.jpg', 'key': 'i', 'origWidth': 411, 'origHeight': 411, 'width': 411, 'height': 411, 'widthPercent': 0.45, 'rescaleHeight': False, 'trialN': 22, 'loaded': True, 'loadedTime': 2208.1999999955297, 'positionName': 'RIGHT', 'positionCoords': [998.4, 334.5], 'bid': 0.13}]",43497.09999999404,1669829234199,mango,raspberries,0.04,0.13,0.09,mango,1636.0,1636,1636.3000000044703,True,u,45641.29999999702,2144.2000000029802,1669829236343,2144,HRV,HRV_0004,2022-11-30 17:31:50
23,"[{'imgObject': {}, 'id': 'steak', 'src': '/static/foodstim60/steak.jpg', 'key': 'u', 'origWidth': 410, 'origHeight': 410, 'width': 410, 'height': 410, 'widthPercent': 0.45, 'rescaleHeight': False, 'trialN': 23, 'loaded': True, 'loadedTime': 2364.7999999970198, 'positionName': 'LEFT', 'positionCoords': [511.6, 335], 'bid': 9.97}, {'imgObject': {}, 'id': 'turkey sandwich', 'src': '/static/foodstim60/turkey sandwich.jpg', 'key': 'i', 'origWidth': 409, 'origHeight': 409, 'width': 409, 'height': 409, 'widthPercent': 0.45, 'rescaleHeight': False, 'trialN': 23, 'loaded': True, 'loadedTime': 2344.2999999970198, 'positionName': 'RIGHT', 'positionCoords': [998.4, 335.5], 'bid': 9.95}]",45641.69999999553,1669829236344,steak,turkey sandwich,9.97,9.95,-0.02000000000000135,turkey sandwich,1700.1000000014901,1700,1700.5,True,i,47853.5,2211.8000000044703,1669829238555,2211,HRV,HRV_0004,2022-11-30 17:31:50
24,"[{'imgObject': {}, 'id': 'salad w chicken', 'src': '/static/foodstim60/salad w chicken.jpg', 'key': 'u', 'origWidth': 411, 'origHeight': 411, 'width': 411, 'height': 411, 'widthPercent': 0.45, 'rescaleHeight': False, 'trialN': 24, 'loaded': True, 'loadedTime': 2366, 'positionName': 'LEFT', 'positionCoords': [510.6, 334.5], 'bid': 10}, {'imgObject': {}, 'id': 'burger', 'src': '/static/foodstim60/burger.jpg', 'key': 'i', 'origWidth': 409, 'origHeight': 409, 'width': 409, 'height': 409, 'widthPercent': 0.45, 'rescaleHeight': False, 'trialN': 24, 'loaded': True, 'loadedTime': 2374.6999999955297, 'positionName': 'RIGHT', 'positionCoords': [998.4, 335.5], 'bid': 0.1}]",47853.79999999702,1669829238556,salad w chicken,burger,10.0,0.1,-9.9,salad w chicken,1110.3999999985099,1110,1110.6000000014901,True,u,49469.5,1615.7000000029802,1669829240171,1615,HRV,HRV_0004,2022-11-30 17:31:50
25,"[{'imgObject': {}, 'id': 'rigatoni and sauce', 'src': '/static/foodstim60/rigatoni and sauce.jpg', 'key': 'u', 'origWidth': 410, 'origHeight': 411, 'width': 410, 'height': 411, 'widthPercent': 0.45, 'rescaleHeight': False, 'trialN': 25, 'loaded': True, 'loadedTime': 2379.5, 'positionName': 'LEFT', 'positionCoords': [511.6, 334.5], 'bid': 0.05}, {'imgObject': {}, 'id': 'chicken nuggets2', 'src': '/static/foodstim60/chicken nuggets2.jpg', 'key': 'i', 'origWidth': 410, 'origHeight': 409, 'width': 410, 'height': 409, 'widthPercent': 0.45, 'rescaleHeight': False, 'trialN': 25, 'loaded': True, 'loadedTime': 2255.7999999970198, 'positionName': 'RIGHT', 'positionCoords': [998.4, 335.5], 'bid': 5.01}]",49469.79999999702,1669829240172,rigatoni and sauce,chicken nuggets2,0.05,5.01,4.96,chicken nuggets2,815.2999999970198,815,815.7999999970198,True,i,50787.39999999851,1317.6000000014901,1669829241489,1317,HRV,HRV_0004,2022-11-30 17:31:50
26,"[{'imgObject': {}, 'id': 'rigatoni', 'src': '/static/foodstim60/rigatoni.jpg', 'key': 'u', 'origWidth': 411, 'origHeight': 411, 'width': 411, 'height': 411, 'widthPercent': 0.45, 'rescaleHeight': False, 'trialN': 26, 'loaded': True, 'loadedTime': 2380.5999999940395, 'positionName': 'LEFT', 'positionCoords': [510.6, 334.5], 'bid': 0.06}, {'imgObject': {}, 'id': 'sweetpotato', 'src': '/static/foodstim60/sweetpotato.jpg', 'key': 'i', 'origWidth': 410, 'origHeight': 410, 'width': 410, 'height': 410, 'widthPercent': 0.45, 'rescaleHeight': False, 'trialN': 26, 'loaded': True, 'loadedTime': 2385.39999999851, 'positionName': 'RIGHT', 'positionCoords': [998.4, 335], 'bid': 0}]",50787.59999999404,1669829241489,rigatoni,sweetpotato,0.06,0.0,-0.06,rigatoni,2042.2000000029802,2043,2042.7000000029802,True,u,53349.5,2561.9000000059605,1669829244051,2562,HRV,HRV_0004,2022-11-30 17:31:50
27,"[{'imgObject': {}, 'id': 'eggs', 'src': '/static/foodstim60/eggs.jpg', 'key': 'u', 'origWidth': 409, 'origHeight': 409, 'width': 409, 'height': 409, 'widthPercent': 0.45, 'rescaleHeight': False, 'trialN': 27, 'loaded': True, 'loadedTime': 2274.5, 'positionName': 'LEFT', 'positionCoords': [512.6, 335.5], 'bid': 9.91}, {'imgObject': {}, 'id': 'turkeysandwich', 'src': '/static/foodstim60/turkeysandwich.jpg', 'key': 'i', 'origWidth': 409, 'origHeight': 409, 'width': 409, 'height': 409, 'widthPercent': 0.45, 'rescaleHeight': False, 'trialN': 27, 'loaded': True, 'loadedTime': 2385.39999999851, 'positionName': 'RIGHT', 'positionCoords': [998.4, 335.5], 'bid': 0.13}]",53349.79999999702,1669829244052,eggs,turkeysandwich,9.91,0.13,-9.78,eggs,1104.2999999970198,1104,1104.7000000029802,True,u,54965.5,1615.7000000029802,1669829245667,1615,HRV,HRV_0004,2022-11-30 17:31:50
28,"[{'imgObject': {}, 'id': 'burrito', 'src': '/static/foodstim60/burrito.jpg', 'key': 'u', 'origWidth': 410, 'origHeight': 410, 'width': 410, 'height': 410, 'widthPercent': 0.45, 'rescaleHeight': False, 'trialN': 28, 'loaded': True, 'loadedTime': 2319, 'positionName': 'LEFT', 'positionCoords': [511.6, 335], 'bid': 0}, {'imgObject': {}, 'id': 'fruitsalad', 'src': '/static/foodstim60/fruitsalad.jpg', 'key': 'i', 'origWidth': 410, 'origHeight': 410, 'width': 410, 'height': 410, 'widthPercent': 0.45, 'rescaleHeight': False, 'trialN': 28, 'loaded': True, 'loadedTime': 2169.5, 'positionName': 'RIGHT', 'positionCoords': [998.4, 335], 'bid': 0.05}]",54965.69999999553,1669829245668,burrito,fruitsalad,0.0,0.05,0.05,burrito,1528.7000000029802,1529,1529.2000000029802,True,u,57005.5,2039.8000000044703,1669829247707,2039,HRV,HRV_0004,2022-11-30 17:31:50
29,"[{'imgObject': {}, 'id': 'bagel plain', 'src': '/static/foodstim60/bagel plain.jpg', 'key': 'u', 'origWidth': 410, 'origHeight': 410, 'width': 410, 'height': 410, 'widthPercent': 0.45, 'rescaleHeight': False, 'trialN': 29, 'loaded': True, 'loadedTime': 2391.89999999851, 'positionName': 'LEFT', 'positionCoords': [511.6, 335], 'bid': 0.05}, {'imgObject': {}, 'id': 'Tribe humus pita', 'src': '/static/foodstim60/Tribe humus pita.jpg', 'key': 'i', 'origWidth': 411, 'origHeight': 411, 'width': 411, 'height': 411, 'widthPercent': 0.45, 'rescaleHeight': False, 'trialN': 29, 'loaded': True, 'loadedTime': 2163.39999999851, 'positionName': 'RIGHT', 'positionCoords': [998.4, 334.5], 'bid': 0.07}]",57005.79999999702,1669829247708,bagel plain,Tribe humus pita,0.05,0.07,0.020000000000000004,bagel plain,1480.2000000029802,1480,1480.6000000014901,True,u,58999.59999999404,1993.7999999970198,1669829249701,1993,HRV,HRV_0004,2022-11-30 17:31:50
30,"[{'imgObject': {}, 'id': 'salmon', 'src': '/static/foodstim60/salmon.jpg', 'key': 'u', 'origWidth': 410, 'origHeight': 409, 'width': 410, 'height': 409, 'widthPercent': 0.45, 'rescaleHeight': False, 'trialN': 30, 'loaded': True, 'loadedTime': 2128.6999999955297, 'positionName': 'LEFT', 'positionCoords': [511.6, 335.5], 'bid': 0.12}, {'imgObject': {}, 'id': 'olives', 'src': '/static/foodstim60/olives.jpg', 'key': 'i', 'origWidth': 410, 'origHeight': 410, 'width': 410, 'height': 410, 'widthPercent': 0.45, 'rescaleHeight': False, 'trialN': 30, 'loaded': True, 'loadedTime': 2392.2999999970198, 'positionName': 'RIGHT', 'positionCoords': [998.4, 335], 'bid': 0.09}]",58999.89999999851,1669829249702,salmon,olives,0.12,0.09,-0.03,salmon,1116.5,1116,1116.6000000014901,True,u,60628.79999999702,1628.8999999985099,1669829251331,1629,HRV,HRV_0004,2022-11-30 17:31:50
31,"[{'imgObject': {}, 'id': 'blackbeanswithrice', 'src': '/static/foodstim60/blackbeanswithrice.jpg', 'key': 'u', 'origWidth': 410, 'origHeight': 410, 'width': 410, 'height': 410, 'widthPercent': 0.45, 'rescaleHeight': False, 'trialN': 31, 'loaded': True, 'loadedTime': 2179.5, 'positionName': 'LEFT', 'positionCoords': [511.6, 335], 'bid': 0.06}, {'imgObject': {}, 'id': 'kiwi', 'src': '/static/foodstim60/kiwi.jpg', 'key': 'i', 'origWidth': 410, 'origHeight': 410, 'width': 410, 'height': 410, 'widthPercent': 0.45, 'rescaleHeight': False, 'trialN': 31, 'loaded': True, 'loadedTime': 2213.0999999940395, 'positionName': 'RIGHT', 'positionCoords': [998.4, 335], 'bid': 0.03}]",60629.09999999404,1669829251331,blackbeanswithrice,kiwi,0.06,0.03,-0.03,blackbeanswithrice,2208.7000000029802,2209,2209.10000000149,True,u,63360.59999999404,2731.5,1669829254062,2731,HRV,HRV_0004,2022-11-30 17:31:50
32,"[{'imgObject': {}, 'id': 'cheerios', 'src': '/static/foodstim60/cheerios.jpg', 'key': 'u', 'origWidth': 409, 'origHeight': 410, 'width': 409, 'height': 410, 'widthPercent': 0.45, 'rescaleHeight': False, 'trialN': 32, 'loaded': True, 'loadedTime': 2345.39999999851, 'positionName': 'LEFT', 'positionCoords': [512.6, 335], 'bid': 4.96}, {'imgObject': {}, 'id': 'chickenfingers', 'src': '/static/foodstim60/chickenfingers.jpg', 'key': 'i', 'origWidth': 410, 'origHeight': 410, 'width': 410, 'height': 410, 'widthPercent': 0.45, 'rescaleHeight': False, 'trialN': 32, 'loaded': True, 'loadedTime': 2398, 'positionName': 'RIGHT', 'positionCoords': [998.4, 335], 'bid': 9.9}]",63360.89999999851,1669829254063,cheerios,chickenfingers,4.96,9.9,4.94,chickenfingers,1244.7999999970198,1245,1245.2999999970198,True,i,65116.59999999404,1755.6999999955297,1669829255818,1755,HRV,HRV_0004,2022-11-30 17:31:50
33,"[{'imgObject': {}, 'id': 'hashbrowns', 'src': '/static/foodstim60/hashbrowns.jpg', 'key': 'u', 'origWidth': 411, 'origHeight': 410, 'width': 411, 'height': 410, 'widthPercent': 0.45, 'rescaleHeight': False, 'trialN': 33, 'loaded': True, 'loadedTime': 2193.1999999955297, 'positionName': 'LEFT', 'positionCoords': [510.6, 335], 'bid': 0.03}, {'imgObject': {}, 'id': 'fruitsalad', 'src': '/static/foodstim60/fruitsalad.jpg', 'key': 'i', 'origWidth': 410, 'origHeight': 410, 'width': 410, 'height': 410, 'widthPercent': 0.45, 'rescaleHeight': False, 'trialN': 33, 'loaded': True, 'loadedTime': 2169.7999999970198, 'positionName': 'RIGHT', 'positionCoords': [998.4, 335], 'bid': 0.05}]",65116.79999999702,1669829255819,hashbrowns,fruitsalad,0.03,0.05,0.020000000000000004,fruitsalad,1570.0,1570,1570.5,True,i,67197.59999999404,2080.7999999970198,1669829257899,2080,HRV,HRV_0004,2022-11-30 17:31:50
34,"[{'imgObject': {}, 'id': 'eggsalad', 'src': '/static/foodstim60/eggsalad.jpg', 'key': 'u', 'origWidth': 410, 'origHeight': 409, 'width': 410, 'height': 409, 'widthPercent': 0.45, 'rescaleHeight': False, 'trialN': 34, 'loaded': True, 'loadedTime': 2401.5, 'positionName': 'LEFT', 'positionCoords': [511.6, 335.5], 'bid': 0.05}, {'imgObject': {}, 'id': 'bagel and cc', 'src': '/static/foodstim60/bagel and cc.jpg', 'key': 'i', 'origWidth': 410, 'origHeight': 410, 'width': 410, 'height': 410, 'widthPercent': 0.45, 'rescaleHeight': False, 'trialN': 34, 'loaded': True, 'loadedTime': 2110.5, 'positionName': 'RIGHT', 'positionCoords': [998.4, 335], 'bid': 0.07}]",67197.89999999851,1669829257900,eggsalad,bagel and cc,0.05,0.07,0.020000000000000004,bagel and cc,1952.1999999955297,1952,1952.6000000014901,True,i,69671.79999999702,2473.89999999851,1669829260374,2474,HRV,HRV_0004,2022-11-30 17:31:50
35,"[{'imgObject': {}, 'id': 'blueberries', 'src': '/static/foodstim60/blueberries.jpg', 'key': 'u', 'origWidth': 411, 'origHeight': 411, 'width': 411, 'height': 411, 'widthPercent': 0.45, 'rescaleHeight': False, 'trialN': 35, 'loaded': True, 'loadedTime': 2325.2999999970198, 'positionName': 'LEFT', 'positionCoords': [510.6, 334.5], 'bid': 0.12}, {'imgObject': {}, 'id': 'ice cream sundae 002', 'src': '/static/foodstim60/ice cream sundae 002.jpg', 'key': 'i', 'origWidth': 409, 'origHeight': 409, 'width': 409, 'height': 409, 'widthPercent': 0.45, 'rescaleHeight': False, 'trialN': 35, 'loaded': True, 'loadedTime': 2401.5999999940395, 'positionName': 'RIGHT', 'positionCoords': [998.4, 335.5], 'bid': 0.1}]",69672.0,1669829260374,blueberries,ice cream sundae 002,0.12,0.1,-0.01999999999999999,ice cream sundae 002,1045.0999999940395,1045,1045.5999999940395,True,i,71219.5,1547.5,1669829261921,1547,HRV,HRV_0004,2022-11-30 17:31:50
36,"[{'imgObject': {}, 'id': 'bagel and cc', 'src': '/static/foodstim60/bagel and cc.jpg', 'key': 'u', 'origWidth': 410, 'origHeight': 410, 'width': 410, 'height': 410, 'widthPercent': 0.45, 'rescaleHeight': False, 'trialN': 36, 'loaded': True, 'loadedTime': 2115.5999999940395, 'positionName': 'LEFT', 'positionCoords': [511.6, 335], 'bid': 0.07}, {'imgObject': {}, 'id': 'roastedpotatoes', 'src': '/static/foodstim60/roastedpotatoes.jpg', 'key': 'i', 'origWidth': 409, 'origHeight': 410, 'width': 409, 'height': 410, 'widthPercent': 0.45, 'rescaleHeight': False, 'trialN': 36, 'loaded': True, 'loadedTime': 2251, 'positionName': 'RIGHT', 'positionCoords': [998.4, 335], 'bid': 9.8}]",71219.79999999702,1669829261922,bagel and cc,roastedpotatoes,0.07,9.8,9.73,roastedpotatoes,937.2999999970198,937,937.7000000029802,True,i,72664.5,1444.7000000029802,1669829263366,1444,HRV,HRV_0004,2022-11-30 17:31:50
37,"[{'imgObject': {}, 'id': 'apple slices', 'src': '/static/foodstim60/apple slices.jpg', 'key': 'u', 'origWidth': 409, 'origHeight': 410, 'width': 409, 'height': 410, 'widthPercent': 0.45, 'rescaleHeight': False, 'trialN': 37, 'loaded': True, 'loadedTime': 2245.0999999940395, 'positionName': 'LEFT', 'positionCoords': [512.6, 335], 'bid': 5.0600000000000005}, {'imgObject': {}, 'id': 'turkey sandwich', 'src': '/static/foodstim60/turkey sandwich.jpg', 'key': 'i', 'origWidth': 409, 'origHeight': 409, 'width': 409, 'height': 409, 'widthPercent': 0.45, 'rescaleHeight': False, 'trialN': 37, 'loaded': True, 'loadedTime': 2344.5999999940395, 'positionName': 'RIGHT', 'positionCoords': [998.4, 335.5], 'bid': 9.95}]",72664.59999999404,1669829263366,apple slices,turkey sandwich,5.0600000000000005,9.95,4.889999999999999,turkey sandwich,1124.5,1125,1125.0,True,i,74304.39999999851,1639.8000000044703,1669829265006,1640,HRV,HRV_0004,2022-11-30 17:31:50
38,"[{'imgObject': {}, 'id': 'baked potato', 'src': '/static/foodstim60/baked potato.jpg', 'key': 'u', 'origWidth': 409, 'origHeight': 410, 'width': 409, 'height': 410, 'widthPercent': 0.45, 'rescaleHeight': False, 'trialN': 38, 'loaded': True, 'loadedTime': 2403.39999999851, 'positionName': 'LEFT', 'positionCoords': [512.6, 335], 'bid': 0.14}, {'imgObject': {}, 'id': 'raisin bran w milk', 'src': '/static/foodstim60/raisin bran w milk.jpg', 'key': 'i', 'origWidth': 411, 'origHeight': 411, 'width': 411, 'height': 411, 'widthPercent': 0.45, 'rescaleHeight': False, 'trialN': 38, 'loaded': True, 'loadedTime': 2403.6999999955297, 'positionName': 'RIGHT', 'positionCoords': [998.4, 334.5], 'bid': 0.05}]",74304.69999999553,1669829265007,baked potato,raisin bran w milk,0.14,0.05,-0.09000000000000001,baked potato,1597.1000000014901,1597,1597.5,True,u,76425.69999999553,2121.0,1669829267127,2120,HRV,HRV_0004,2022-11-30 17:31:50
39,"[{'imgObject': {}, 'id': 'sushi w_condiments', 'src': '/static/foodstim60/sushi w_condiments.jpg', 'key': 'u', 'origWidth': 410, 'origHeight': 410, 'width': 410, 'height': 410, 'widthPercent': 0.45, 'rescaleHeight': False, 'trialN': 39, 'loaded': True, 'loadedTime': 2354.0999999940395, 'positionName': 'LEFT', 'positionCoords': [511.6, 335], 'bid': 0.07}, {'imgObject': {}, 'id': 'Tribe humus pita', 'src': '/static/foodstim60/Tribe humus pita.jpg', 'key': 'i', 'origWidth': 411, 'origHeight': 411, 'width': 411, 'height': 411, 'widthPercent': 0.45, 'rescaleHeight': False, 'trialN': 39, 'loaded': True, 'loadedTime': 2154.2999999970198, 'positionName': 'RIGHT', 'positionCoords': [998.4, 334.5], 'bid': 0.07}]",76425.89999999851,1669829267128,sushi w_condiments,Tribe humus pita,0.07,0.07,0.0,Tribe humus pita,956.6999999955297,957,957.1000000014901,True,i,77903.5,1477.6000000014901,1669829268605,1477,HRV,HRV_0004,2022-11-30 17:31:50
40,"[{'imgObject': {}, 'id': 'mashed potato', 'src': '/static/foodstim60/mashed potato.jpg', 'key': 'u', 'origWidth': 409, 'origHeight': 409, 'width': 409, 'height': 409, 'widthPercent': 0.45, 'rescaleHeight': False, 'trialN': 40, 'loaded': True, 'loadedTime': 2406.5999999940395, 'positionName': 'LEFT', 'positionCoords': [512.6, 335.5], 'bid': 0.05}, {'imgObject': {}, 'id': 'grilled chicken strips', 'src': '/static/foodstim60/grilled chicken strips.jpg', 'key': 'i', 'origWidth': 410, 'origHeight': 411, 'width': 410, 'height': 411, 'widthPercent': 0.45, 'rescaleHeight': False, 'trialN': 40, 'loaded': True, 'loadedTime': 2231.6999999955297, 'positionName': 'RIGHT', 'positionCoords': [998.4, 334.5], 'bid': 0.05}]",77903.79999999702,1669829268606,mashed potato,grilled chicken strips,0.05,0.05,0.0,grilled chicken strips,901.8999999985099,902,902.2999999970198,True,i,79328.79999999702,1425.0,1669829270031,1425,HRV,HRV_0004,2022-11-30 17:31:50
41,"[{'imgObject': {}, 'id': 'hashbrowns', 'src': '/static/foodstim60/hashbrowns.jpg', 'key': 'u', 'origWidth': 411, 'origHeight': 410, 'width': 411, 'height': 410, 'widthPercent': 0.45, 'rescaleHeight': False, 'trialN': 41, 'loaded': True, 'loadedTime': 2193.39999999851, 'positionName': 'LEFT', 'positionCoords': [510.6, 335], 'bid': 0.03}, {'imgObject': {}, 'id': 'popsicles', 'src': '/static/foodstim60/popsicles.jpg', 'key': 'i', 'origWidth': 410, 'origHeight': 410, 'width': 410, 'height': 410, 'widthPercent': 0.45, 'rescaleHeight': False, 'trialN': 41, 'loaded': True, 'loadedTime': 2407.2999999970198, 'positionName': 'RIGHT', 'positionCoords': [998.4, 335], 'bid': 0}]",79329.09999999404,1669829270031,hashbrowns,popsicles,0.03,0.0,-0.03,hashbrowns,1757.0,1757,1757.4000000059605,True,u,81597.59999999404,2268.5,1669829272299,2268,HRV,HRV_0004,2022-11-30 17:31:50
42,"[{'imgObject': {}, 'id': 'froot loops w milk', 'src': '/static/foodstim60/froot loops w milk.jpg', 'key': 'u', 'origWidth': 410, 'origHeight': 410, 'width': 410, 'height': 410, 'widthPercent': 0.45, 'rescaleHeight': False, 'trialN': 42, 'loaded': True, 'loadedTime': 2299.0999999940395, 'positionName': 'LEFT', 'positionCoords': [511.6, 335], 'bid': 7.5}, {'imgObject': {}, 'id': 'ice cream sundae 002', 'src': '/static/foodstim60/ice cream sundae 002.jpg', 'key': 'i', 'origWidth': 409, 'origHeight': 409, 'width': 409, 'height': 409, 'widthPercent': 0.45, 'rescaleHeight': False, 'trialN': 42, 'loaded': True, 'loadedTime': 2402.5, 'positionName': 'RIGHT', 'positionCoords': [998.4, 335.5], 'bid': 0.1}]",81597.89999999851,1669829272300,froot loops w milk,ice cream sundae 002,7.5,0.1,-7.4,ice cream sundae 002,1560.1999999955297,1560,1560.6999999955297,True,i,83677.69999999553,2079.7999999970198,1669829274380,2080,HRV,HRV_0004,2022-11-30 17:31:50
43,"[{'imgObject': {}, 'id': 'corn cob', 'src': '/static/foodstim60/corn cob.jpg', 'key': 'u', 'origWidth': 411, 'origHeight': 411, 'width': 411, 'height': 411, 'widthPercent': 0.45, 'rescaleHeight': False, 'trialN': 43, 'loaded': True, 'loadedTime': 2184, 'positionName': 'LEFT', 'positionCoords': [510.6, 334.5], 'bid': 0.01}, {'imgObject': {}, 'id': 'blueberries', 'src': '/static/foodstim60/blueberries.jpg', 'key': 'i', 'origWidth': 411, 'origHeight': 411, 'width': 411, 'height': 411, 'widthPercent': 0.45, 'rescaleHeight': False, 'trialN': 43, 'loaded': True, 'loadedTime': 2325.39999999851, 'positionName': 'RIGHT', 'positionCoords': [998.4, 334.5], 'bid': 0.12}]",83678.19999999553,1669829274380,corn cob,blueberries,0.01,0.12,0.11,corn cob,1374.7000000029802,1375,1375.2000000029802,True,u,85563.59999999404,1885.3999999985099,1669829276265,1885,HRV,HRV_0004,2022-11-30 17:31:50
44,"[{'imgObject': {}, 'id': 'strawberries', 'src': '/static/foodstim60/strawberries.jpg', 'key': 'u', 'origWidth': 410, 'origHeight': 410, 'width': 410, 'height': 410, 'widthPercent': 0.45, 'rescaleHeight': False, 'trialN': 44, 'loaded': True, 'loadedTime': 2298.5999999940395, 'positionName': 'LEFT', 'positionCoords': [511.6, 335], 'bid': 8.69}, {'imgObject': {}, 'id': 'raspberries', 'src': '/static/foodstim60/raspberries.jpg', 'key': 'i', 'origWidth': 411, 'origHeight': 411, 'width': 411, 'height': 411, 'widthPercent': 0.45, 'rescaleHeight': False, 'trialN': 44, 'loaded': True, 'loadedTime': 2208.6999999955297, 'positionName': 'RIGHT', 'positionCoords': [998.4, 334.5], 'bid': 0.13}]",85563.89999999851,1669829276266,strawberries,raspberries,8.69,0.13,-8.559999999999999,strawberries,865.7999999970198,866,866.2999999970198,True,u,86941.69999999553,1377.7999999970198,1669829277643,1377,HRV,HRV_0004,2022-11-30 17:31:50
45,"[{'imgObject': {}, 'id': 'chickenfingers', 'src': '/static/foodstim60/chickenfingers.jpg', 'key': 'u', 'origWidth': 410, 'origHeight': 410, 'width': 410, 'height': 410, 'widthPercent': 0.45, 'rescaleHeight': False, 'trialN': 45, 'loaded': True, 'loadedTime': 2397.0999999940395, 'positionName': 'LEFT', 'positionCoords': [511.6, 335], 'bid': 9.9}, {'imgObject': {}, 'id': 'granola w milk', 'src': '/static/foodstim60/granola w milk.jpg', 'key': 'i', 'origWidth': 410, 'origHeight': 410, 'width': 410, 'height': 410, 'widthPercent': 0.45, 'rescaleHeight': False, 'trialN': 45, 'loaded': True, 'loadedTime': 2408.2999999970198, 'positionName': 'RIGHT', 'positionCoords': [998.4, 335], 'bid': 0.08}]",86941.89999999851,1669829277644,chickenfingers,granola w milk,9.9,0.08,-9.82,chickenfingers,632.6000000014901,633,633.1000000014901,True,u,88088.39999999851,1146.5,1669829278790,1146,HRV,HRV_0004,2022-11-30 17:31:50
46,"[{'imgObject': {}, 'id': 'sushi w_condiments', 'src': '/static/foodstim60/sushi w_condiments.jpg', 'key': 'u', 'origWidth': 410, 'origHeight': 410, 'width': 410, 'height': 410, 'widthPercent': 0.45, 'rescaleHeight': False, 'trialN': 46, 'loaded': True, 'loadedTime': 2349.89999999851, 'positionName': 'LEFT', 'positionCoords': [511.6, 335], 'bid': 0.07}, {'imgObject': {}, 'id': 'fried eggs', 'src': '/static/foodstim60/fried eggs.jpg', 'key': 'i', 'origWidth': 410, 'origHeight': 410, 'width': 410, 'height': 410, 'widthPercent': 0.45, 'rescaleHeight': False, 'trialN': 46, 'loaded': True, 'loadedTime': 2412.6999999955297, 'positionName': 'RIGHT', 'positionCoords': [998.4, 335], 'bid': 0.1}]",88088.69999999553,1669829278790,sushi w_condiments,fried eggs,0.07,0.1,0.03,fried eggs,1381.2000000029802,1382,1381.7000000029802,True,i,89984.59999999404,1895.8999999985099,1669829280686,1896,HRV,HRV_0004,2022-11-30 17:31:50
47,"[{'imgObject': {}, 'id': 'pear', 'src': '/static/foodstim60/pear.jpg', 'key': 'u', 'origWidth': 411, 'origHeight': 410, 'width': 411, 'height': 410, 'widthPercent': 0.45, 'rescaleHeight': False, 'trialN': 47, 'loaded': True, 'loadedTime': 2413.5999999940395, 'positionName': 'LEFT', 'positionCoords': [510.6, 335], 'bid': 5.0600000000000005}, {'imgObject': {}, 'id': 'baked potato', 'src': '/static/foodstim60/baked potato.jpg', 'key': 'i', 'origWidth': 409, 'origHeight': 410, 'width': 409, 'height': 410, 'widthPercent': 0.45, 'rescaleHeight': False, 'trialN': 47, 'loaded': True, 'loadedTime': 2402.5999999940395, 'positionName': 'RIGHT', 'positionCoords': [998.4, 335], 'bid': 0.14}]",89984.79999999702,1669829280687,pear,baked potato,5.0600000000000005,0.14,-4.920000000000001,pear,1196.2000000029802,1196,1196.7000000029802,True,u,91688.39999999851,1703.6000000014901,1669829282390,1703,HRV,HRV_0004,2022-11-30 17:31:50
48,"[{'imgObject': {}, 'id': 'fried eggs', 'src': '/static/foodstim60/fried eggs.jpg', 'key': 'u', 'origWidth': 410, 'origHeight': 410, 'width': 410, 'height': 410, 'widthPercent': 0.45, 'rescaleHeight': False, 'trialN': 48, 'loaded': True, 'loadedTime': 2408.7999999970198, 'positionName': 'LEFT', 'positionCoords': [511.6, 335], 'bid': 0.1}, {'imgObject': {}, 'id': 'cherry tomato', 'src': '/static/foodstim60/cherry tomato.jpg', 'key': 'i', 'origWidth': 410, 'origHeight': 410, 'width': 410, 'height': 410, 'widthPercent': 0.45, 'rescaleHeight': False, 'trialN': 48, 'loaded': True, 'loadedTime': 2265.1999999955297, 'positionName': 'RIGHT', 'positionCoords': [998.4, 335], 'bid': 0.1}]",91688.59999999404,1669829282390,fried eggs,cherry tomato,0.1,0.1,0.0,fried eggs,837.3000000044703,838,837.9000000059605,True,u,93046.69999999553,1358.1000000014901,1669829283748,1358,HRV,HRV_0004,2022-11-30 17:31:50
49,"[{'imgObject': {}, 'id': 'blackbeanswithrice', 'src': '/static/foodstim60/blackbeanswithrice.jpg', 'key': 'u', 'origWidth': 410, 'origHeight': 410, 'width': 410, 'height': 410, 'widthPercent': 0.45, 'rescaleHeight': False, 'trialN': 49, 'loaded': True, 'loadedTime': 2175.5, 'positionName': 'LEFT', 'positionCoords': [511.6, 335], 'bid': 0.06}, {'imgObject': {}, 'id': 'rigatoni', 'src': '/static/foodstim60/rigatoni.jpg', 'key': 'i', 'origWidth': 411, 'origHeight': 411, 'width': 411, 'height': 411, 'widthPercent': 0.45, 'rescaleHeight': False, 'trialN': 49, 'loaded': True, 'loadedTime': 2380.39999999851, 'positionName': 'RIGHT', 'positionCoords': [998.4, 334.5], 'bid': 0.06}]",93046.79999999702,1669829283749,blackbeanswithrice,rigatoni,0.06,0.06,0.0,blackbeanswithrice,871.1000000014901,871,871.5,True,u,94441.39999999851,1394.6000000014901,1669829285143,1394,HRV,HRV_0004,2022-11-30 17:31:50
50,"[{'imgObject': {}, 'id': 'mac & cheese', 'src': '/static/foodstim60/mac & cheese.jpg', 'key': 'u', 'origWidth': 410, 'origHeight': 410, 'width': 410, 'height': 410, 'widthPercent': 0.45, 'rescaleHeight': False, 'trialN': 50, 'loaded': True, 'loadedTime': 2222.5999999940395, 'positionName': 'LEFT', 'positionCoords': [511.6, 335], 'bid': 0.09}, {'imgObject': {}, 'id': 'cantaloupe', 'src': '/static/foodstim60/cantaloupe.jpg', 'key': 'i', 'origWidth': 409, 'origHeight': 409, 'width': 409, 'height': 409, 'widthPercent': 0.45, 'rescaleHeight': False, 'trialN': 50, 'loaded': True, 'loadedTime': 2279.2999999970198, 'positionName': 'RIGHT', 'positionCoords': [998.4, 335.5], 'bid': 0.09}]",94441.79999999702,1669829285144,mac & cheese,cantaloupe,0.09,0.09,0.0,mac & cheese,843.7999999970198,844,844.2999999970198,True,u,95806.59999999404,1364.7999999970198,1669829286508,1364,HRV,HRV_0004,2022-11-30 17:31:50
51,"[{'imgObject': {}, 'id': 'orange slices', 'src': '/static/foodstim60/orange slices.jpg', 'key': 'u', 'origWidth': 409, 'origHeight': 410, 'width': 409, 'height': 410, 'widthPercent': 0.45, 'rescaleHeight': False, 'trialN': 51, 'loaded': True, 'loadedTime': 2313, 'positionName': 'LEFT', 'positionCoords': [512.6, 335], 'bid': 0}, {'imgObject': {}, 'id': 'mango', 'src': '/static/foodstim60/mango.jpg', 'key': 'i', 'origWidth': 411, 'origHeight': 411, 'width': 411, 'height': 411, 'widthPercent': 0.45, 'rescaleHeight': False, 'trialN': 51, 'loaded': True, 'loadedTime': 2359.5, 'positionName': 'RIGHT', 'positionCoords': [998.4, 334.5], 'bid': 0.04}]",95806.79999999702,1669829286509,orange slices,mango,0.0,0.04,0.04,orange slices,1567.1000000014901,1567,1567.3999999985099,True,u,97890.79999999702,2084.0,1669829288593,2084,HRV,HRV_0004,2022-11-30 17:31:50
52,"[{'imgObject': {}, 'id': 'raisin bran w milk', 'src': '/static/foodstim60/raisin bran w milk.jpg', 'key': 'u', 'origWidth': 411, 'origHeight': 411, 'width': 411, 'height': 411, 'widthPercent': 0.45, 'rescaleHeight': False, 'trialN': 52, 'loaded': True, 'loadedTime': 2404.2999999970198, 'positionName': 'LEFT', 'positionCoords': [510.6, 334.5], 'bid': 0.05}, {'imgObject': {}, 'id': 'popsicles', 'src': '/static/foodstim60/popsicles.jpg', 'key': 'i', 'origWidth': 410, 'origHeight': 410, 'width': 410, 'height': 410, 'widthPercent': 0.45, 'rescaleHeight': False, 'trialN': 52, 'loaded': True, 'loadedTime': 2406.5999999940395, 'positionName': 'RIGHT', 'positionCoords': [998.4, 335], 'bid': 0}]",97891.09999999404,1669829288593,raisin bran w milk,popsicles,0.05,0.0,-0.05,raisin bran w milk,1595.5,1596,1595.9000000059605,True,u,100000.39999999851,2109.3000000044703,1669829290702,2109,HRV,HRV_0004,2022-11-30 17:31:50
53,"[{'imgObject': {}, 'id': 'rigatoni', 'src': '/static/foodstim60/rigatoni.jpg', 'key': 'u', 'origWidth': 411, 'origHeight': 411, 'width': 411, 'height': 411, 'widthPercent': 0.45, 'rescaleHeight': False, 'trialN': 53, 'loaded': True, 'loadedTime': 2380.5, 'positionName': 'LEFT', 'positionCoords': [510.6, 334.5], 'bid': 0.06}, {'imgObject': {}, 'id': 'eggsalad', 'src': '/static/foodstim60/eggsalad.jpg', 'key': 'i', 'origWidth': 410, 'origHeight': 409, 'width': 410, 'height': 409, 'widthPercent': 0.45, 'rescaleHeight': False, 'trialN': 53, 'loaded': True, 'loadedTime': 2400.89999999851, 'positionName': 'RIGHT', 'positionCoords': [998.4, 335.5], 'bid': 0.05}]",100000.5,1669829290702,rigatoni,eggsalad,0.06,0.05,-0.009999999999999995,eggsalad,1829.8999999985099,1831,1830.5,True,i,102344.5,2344.0,1669829293046,2344,HRV,HRV_0004,2022-11-30 17:31:50
54,"[{'imgObject': {}, 'id': 'sweetpotato', 'src': '/static/foodstim60/sweetpotato.jpg', 'key': 'u', 'origWidth': 410, 'origHeight': 410, 'width': 410, 'height': 410, 'widthPercent': 0.45, 'rescaleHeight': False, 'trialN': 54, 'loaded': True, 'loadedTime': 2380.6999999955297, 'positionName': 'LEFT', 'positionCoords': [511.6, 335], 'bid': 0}, {'imgObject': {}, 'id': 'mashed potato', 'src': '/static/foodstim60/mashed potato.jpg', 'key': 'i', 'origWidth': 409, 'origHeight': 409, 'width': 409, 'height': 409, 'widthPercent': 0.45, 'rescaleHeight': False, 'trialN': 54, 'loaded': True, 'loadedTime': 2406.5, 'positionName': 'RIGHT', 'positionCoords': [998.4, 335.5], 'bid': 0.05}]",102344.69999999553,1669829293047,sweetpotato,mashed potato,0.0,0.05,0.05,mashed potato,1477.7000000029802,1478,1478.1000000014901,True,i,104339.5,1994.8000000044703,1669829295041,1994,HRV,HRV_0004,2022-11-30 17:31:50
55,"[{'imgObject': {}, 'id': 'sweetpotato', 'src': '/static/foodstim60/sweetpotato.jpg', 'key': 'u', 'origWidth': 410, 'origHeight': 410, 'width': 410, 'height': 410, 'widthPercent': 0.45, 'rescaleHeight': False, 'trialN': 55, 'loaded': True, 'loadedTime': 2384.7999999970198, 'positionName': 'LEFT', 'positionCoords': [511.6, 335], 'bid': 0}, {'imgObject': {}, 'id': 'ice cream sundae 002', 'src': '/static/foodstim60/ice cream sundae 002.jpg', 'key': 'i', 'origWidth': 409, 'origHeight': 409, 'width': 409, 'height': 409, 'widthPercent': 0.45, 'rescaleHeight': False, 'trialN': 55, 'loaded': True, 'loadedTime': 2402.1999999955297, 'positionName': 'RIGHT', 'positionCoords': [998.4, 335.5], 'bid': 0.1}]",104339.79999999702,1669829295042,sweetpotato,ice cream sundae 002,0.0,0.1,0.1,ice cream sundae 002,1050.2000000029802,1050,1050.6000000014901,True,i,105910.5,1570.7000000029802,1669829296612,1570,HRV,HRV_0004,2022-11-30 17:31:50
56,"[{'imgObject': {}, 'id': 'raspberries', 'src': '/static/foodstim60/raspberries.jpg', 'key': 'u', 'origWidth': 411, 'origHeight': 411, 'width': 411, 'height': 411, 'widthPercent': 0.45, 'rescaleHeight': False, 'trialN': 56, 'loaded': True, 'loadedTime': 2213, 'positionName': 'LEFT', 'positionCoords': [510.6, 334.5], 'bid': 0.13}, {'imgObject': {}, 'id': 'lox', 'src': '/static/foodstim60/lox.jpg', 'key': 'i', 'origWidth': 410, 'origHeight': 411, 'width': 410, 'height': 411, 'widthPercent': 0.45, 'rescaleHeight': False, 'trialN': 56, 'loaded': True, 'loadedTime': 2138.0999999940395, 'positionName': 'RIGHT', 'positionCoords': [998.4, 334.5], 'bid': 0.17}]",105910.79999999702,1669829296613,raspberries,lox,0.13,0.17,0.04000000000000001,raspberries,902.7000000029802,903,903.2999999970198,True,u,107319.5,1408.7000000029802,1669829298021,1408,HRV,HRV_0004,2022-11-30 17:31:50
57,"[{'imgObject': {}, 'id': 'luckycharms', 'src': '/static/foodstim60/luckycharms.jpg', 'key': 'u', 'origWidth': 410, 'origHeight': 409, 'width': 410, 'height': 409, 'widthPercent': 0.45, 'rescaleHeight': False, 'trialN': 57, 'loaded': True, 'loadedTime': 2329.6999999955297, 'positionName': 'LEFT', 'positionCoords': [511.6, 335.5], 'bid': 8.98}, {'imgObject': {}, 'id': 'sushi w_condiments', 'src': '/static/foodstim60/sushi w_condiments.jpg', 'key': 'i', 'origWidth': 410, 'origHeight': 410, 'width': 410, 'height': 410, 'widthPercent': 0.45, 'rescaleHeight': False, 'trialN': 57, 'loaded': True, 'loadedTime': 2349.7999999970198, 'positionName': 'RIGHT', 'positionCoords': [998.4, 335], 'bid': 0.07}]",107320.0,1669829298022,luckycharms,sushi w_condiments,8.98,0.07,-8.91,luckycharms,693.7999999970198,694,694.2999999970198,True,u,108533.5,1213.5,1669829299235,1213,HRV,HRV_0004,2022-11-30 17:31:50
58,"[{'imgObject': {}, 'id': 'salad w chicken', 'src': '/static/foodstim60/salad w chicken.jpg', 'key': 'u', 'origWidth': 411, 'origHeight': 411, 'width': 411, 'height': 411, 'widthPercent': 0.45, 'rescaleHeight': False, 'trialN': 58, 'loaded': True, 'loadedTime': 2365, 'positionName': 'LEFT', 'positionCoords': [510.6, 334.5], 'bid': 10}, {'imgObject': {}, 'id': 'veggieswithdip', 'src': '/static/foodstim60/veggieswithdip.jpg', 'key': 'i', 'origWidth': 409, 'origHeight': 409, 'width': 409, 'height': 409, 'widthPercent': 0.45, 'rescaleHeight': False, 'trialN': 58, 'loaded': True, 'loadedTime': 2414.5999999940395, 'positionName': 'RIGHT', 'positionCoords': [998.4, 335.5], 'bid': 8.1}]",108533.69999999553,1669829299236,salad w chicken,veggieswithdip,10.0,8.1,-1.9000000000000004,salad w chicken,816.3999999985099,817,817.2000000029802,True,u,109859.5,1325.8000000044703,1669829300561,1325,HRV,HRV_0004,2022-11-30 17:31:50
59,"[{'imgObject': {}, 'id': 'tacos', 'src': '/static/foodstim60/tacos.jpg', 'key': 'u', 'origWidth': 411, 'origHeight': 411, 'width': 411, 'height': 411, 'widthPercent': 0.45, 'rescaleHeight': False, 'trialN': 59, 'loaded': True, 'loadedTime': 2414.6999999955297, 'positionName': 'LEFT', 'positionCoords': [510.6, 334.5], 'bid': 0.01}, {'imgObject': {}, 'id': 'blackbeanswithrice', 'src': '/static/foodstim60/blackbeanswithrice.jpg', 'key': 'i', 'origWidth': 410, 'origHeight': 410, 'width': 410, 'height': 410, 'widthPercent': 0.45, 'rescaleHeight': False, 'trialN': 59, 'loaded': True, 'loadedTime': 2174.5, 'positionName': 'RIGHT', 'positionCoords': [998.4, 335], 'bid': 0.06}]",109859.69999999553,1669829300561,tacos,blackbeanswithrice,0.01,0.06,0.049999999999999996,tacos,1714.5,1715,1714.8999999985099,True,u,112095.69999999553,2236.0,1669829302798,2237,HRV,HRV_0004,2022-11-30 17:31:50
60,"[{'imgObject': {}, 'id': 'hotdog w must', 'src': '/static/foodstim60/hotdog w must.jpg', 'key': 'u', 'origWidth': 409, 'origHeight': 409, 'width': 409, 'height': 409, 'widthPercent': 0.45, 'rescaleHeight': False, 'trialN': 60, 'loaded': True, 'loadedTime': 2288.7999999970198, 'positionName': 'LEFT', 'positionCoords': [512.6, 335.5], 'bid': 0.1}, {'imgObject': {}, 'id': 'pear', 'src': '/static/foodstim60/pear.jpg', 'key': 'i', 'origWidth': 411, 'origHeight': 410, 'width': 411, 'height': 410, 'widthPercent': 0.45, 'rescaleHeight': False, 'trialN': 60, 'loaded': True, 'loadedTime': 2413.6999999955297, 'positionName': 'RIGHT', 'positionCoords': [998.4, 335], 'bid': 5.0600000000000005}]",112096.0,1669829302798,hotdog w must,pear,0.1,5.0600000000000005,4.960000000000001,pear,838.0,838,838.2999999970198,True,i,113453.59999999404,1357.5999999940395,1669829304155,1357,HRV,HRV_0004,2022-11-30 17:31:50
61,"[{'imgObject': {}, 'id': 'turkeysandwich', 'src': '/static/foodstim60/turkeysandwich.jpg', 'key': 'u', 'origWidth': 409, 'origHeight': 409, 'width': 409, 'height': 409, 'widthPercent': 0.45, 'rescaleHeight': False, 'trialN': 61, 'loaded': True, 'loadedTime': 2391, 'positionName': 'LEFT', 'positionCoords': [512.6, 335.5], 'bid': 0.13}, {'imgObject': {}, 'id': 'burger', 'src': '/static/foodstim60/burger.jpg', 'key': 'i', 'origWidth': 409, 'origHeight': 409, 'width': 409, 'height': 409, 'widthPercent': 0.45, 'rescaleHeight': False, 'trialN': 61, 'loaded': True, 'loadedTime': 2369.89999999851, 'positionName': 'RIGHT', 'positionCoords': [998.4, 335.5], 'bid': 0.1}]",113453.79999999702,1669829304156,turkeysandwich,burger,0.13,0.1,-0.03,turkeysandwich,871.2000000029802,871,871.6000000014901,True,u,114838.79999999702,1385.0,1669829305541,1385,HRV,HRV_0004,2022-11-30 17:31:50
62,"[{'imgObject': {}, 'id': 'grilled chicken strips', 'src': '/static/foodstim60/grilled chicken strips.jpg', 'key': 'u', 'origWidth': 410, 'origHeight': 411, 'width': 410, 'height': 411, 'widthPercent': 0.45, 'rescaleHeight': False, 'trialN': 62, 'loaded': True, 'loadedTime': 2227.89999999851, 'positionName': 'LEFT', 'positionCoords': [511.6, 334.5], 'bid': 0.05}, {'imgObject': {}, 'id': 'burrito', 'src': '/static/foodstim60/burrito.jpg', 'key': 'i', 'origWidth': 410, 'origHeight': 410, 'width': 410, 'height': 410, 'widthPercent': 0.45, 'rescaleHeight': False, 'trialN': 62, 'loaded': True, 'loadedTime': 2318.0999999940395, 'positionName': 'RIGHT', 'positionCoords': [998.4, 335], 'bid': 0}]",114839.0,1669829305541,grilled chicken strips,burrito,0.05,0.0,-0.05,burrito,1597.6999999955297,1598,1598.1999999955297,True,i,116939.39999999851,2100.39999999851,1669829307641,2100,HRV,HRV_0004,2022-11-30 17:31:50
63,"[{'imgObject': {}, 'id': 'bagel and cc', 'src': '/static/foodstim60/bagel and cc.jpg', 'key': 'u', 'origWidth': 410, 'origHeight': 410, 'width': 410, 'height': 410, 'widthPercent': 0.45, 'rescaleHeight': False, 'trialN': 63, 'loaded': True, 'loadedTime': 2116.5999999940395, 'positionName': 'LEFT', 'positionCoords': [511.6, 335], 'bid': 0.07}, {'imgObject': {}, 'id': 'hashbrowns', 'src': '/static/foodstim60/hashbrowns.jpg', 'key': 'i', 'origWidth': 411, 'origHeight': 410, 'width': 411, 'height': 410, 'widthPercent': 0.45, 'rescaleHeight': False, 'trialN': 63, 'loaded': True, 'loadedTime': 2193.2999999970198, 'positionName': 'RIGHT', 'positionCoords': [998.4, 335], 'bid': 0.03}]",116939.59999999404,1669829307641,bagel and cc,hashbrowns,0.07,0.03,-0.04000000000000001,bagel and cc,1082.5,1083,1082.9000000059605,True,u,118545.39999999851,1605.8000000044703,1669829309247,1606,HRV,HRV_0004,2022-11-30 17:31:50
64,"[{'imgObject': {}, 'id': 'chicken nuggets2', 'src': '/static/foodstim60/chicken nuggets2.jpg', 'key': 'u', 'origWidth': 410, 'origHeight': 409, 'width': 410, 'height': 409, 'widthPercent': 0.45, 'rescaleHeight': False, 'trialN': 64, 'loaded': True, 'loadedTime': 2260.0999999940395, 'positionName': 'LEFT', 'positionCoords': [511.6, 335.5], 'bid': 5.01}, {'imgObject': {}, 'id': 'turkeysandwich', 'src': '/static/foodstim60/turkeysandwich.jpg', 'key': 'i', 'origWidth': 409, 'origHeight': 409, 'width': 409, 'height': 409, 'widthPercent': 0.45, 'rescaleHeight': False, 'trialN': 64, 'loaded': True, 'loadedTime': 2391.1999999955297, 'positionName': 'RIGHT', 'positionCoords': [998.4, 335.5], 'bid': 0.13}]",118545.69999999553,1669829309247,chicken nuggets2,turkeysandwich,5.01,0.13,-4.88,chicken nuggets2,1034.5,1035,1034.8000000044703,True,u,120096.59999999404,1550.8999999985099,1669829310798,1551,HRV,HRV_0004,2022-11-30 17:31:50
65,"[{'imgObject': {}, 'id': 'chicken nuggets2', 'src': '/static/foodstim60/chicken nuggets2.jpg', 'key': 'u', 'origWidth': 410, 'origHeight': 409, 'width': 410, 'height': 409, 'widthPercent': 0.45, 'rescaleHeight': False, 'trialN': 65, 'loaded': True, 'loadedTime': 2255.7999999970198, 'positionName': 'LEFT', 'positionCoords': [511.6, 335.5], 'bid': 5.01}, {'imgObject': {}, 'id': 'banana', 'src': '/static/foodstim60/banana.jpg', 'key': 'i', 'origWidth': 410, 'origHeight': 410, 'width': 410, 'height': 410, 'widthPercent': 0.45, 'rescaleHeight': False, 'trialN': 65, 'loaded': True, 'loadedTime': 2416.2999999970198, 'positionName': 'RIGHT', 'positionCoords': [998.4, 335], 'bid': 9.94}]",120096.89999999851,1669829310799,chicken nuggets2,banana,5.01,9.94,4.93,chicken nuggets2,1196.7999999970198,1197,1197.2999999970198,True,u,121812.39999999851,1715.5,1669829312514,1715,HRV,HRV_0004,2022-11-30 17:31:50
66,"[{'imgObject': {}, 'id': 'turkeysandwich', 'src': '/static/foodstim60/turkeysandwich.jpg', 'key': 'u', 'origWidth': 409, 'origHeight': 409, 'width': 409, 'height': 409, 'widthPercent': 0.45, 'rescaleHeight': False, 'trialN': 66, 'loaded': True, 'loadedTime': 2391.0999999940395, 'positionName': 'LEFT', 'positionCoords': [512.6, 335.5], 'bid': 0.13}, {'imgObject': {}, 'id': 'kiwi', 'src': '/static/foodstim60/kiwi.jpg', 'key': 'i', 'origWidth': 410, 'origHeight': 410, 'width': 410, 'height': 410, 'widthPercent': 0.45, 'rescaleHeight': False, 'trialN': 66, 'loaded': True, 'loadedTime': 2217.7999999970198, 'positionName': 'RIGHT', 'positionCoords': [998.4, 335], 'bid': 0.03}]",121812.79999999702,1669829312515,turkeysandwich,kiwi,0.13,0.03,-0.1,turkeysandwich,825.3999999985099,825,825.8999999985099,True,u,123153.59999999404,1340.7999999970198,1669829313855,1340,HRV,HRV_0004,2022-11-30 17:31:50
67,"[{'imgObject': {}, 'id': 'luckycharms', 'src': '/static/foodstim60/luckycharms.jpg', 'key': 'u', 'origWidth': 410, 'origHeight': 409, 'width': 410, 'height': 409, 'widthPercent': 0.45, 'rescaleHeight': False, 'trialN': 67, 'loaded': True, 'loadedTime': 2330.5, 'positionName': 'LEFT', 'positionCoords': [511.6, 335.5], 'bid': 8.98}, {'imgObject': {}, 'id': 'baked potato', 'src': '/static/foodstim60/baked potato.jpg', 'key': 'i', 'origWidth': 409, 'origHeight': 410, 'width': 409, 'height': 410, 'widthPercent': 0.45, 'rescaleHeight': False, 'trialN': 67, 'loaded': True, 'loadedTime': 2403.1999999955297, 'positionName': 'RIGHT', 'positionCoords': [998.4, 335], 'bid': 0.14}]",123153.79999999702,1669829313856,luckycharms,baked potato,8.98,0.14,-8.84,luckycharms,779.7999999970198,780,780.2999999970198,True,u,124437.39999999851,1283.6000000014901,1669829315139,1283,HRV,HRV_0004,2022-11-30 17:31:50
68,"[{'imgObject': {}, 'id': 'edamame', 'src': '/static/foodstim60/edamame.jpg', 'key': 'u', 'origWidth': 409, 'origHeight': 410, 'width': 409, 'height': 410, 'widthPercent': 0.45, 'rescaleHeight': False, 'trialN': 68, 'loaded': True, 'loadedTime': 2417, 'positionName': 'LEFT', 'positionCoords': [512.6, 335], 'bid': 0.09}, {'imgObject': {}, 'id': 'mac & cheese', 'src': '/static/foodstim60/mac & cheese.jpg', 'key': 'i', 'origWidth': 410, 'origHeight': 410, 'width': 410, 'height': 410, 'widthPercent': 0.45, 'rescaleHeight': False, 'trialN': 68, 'loaded': True, 'loadedTime': 2222.1999999955297, 'positionName': 'RIGHT', 'positionCoords': [998.4, 335], 'bid': 0.09}]",124437.69999999553,1669829315140,edamame,mac & cheese,0.09,0.09,0.0,mac & cheese,888.1000000014901,888,888.5,True,i,125844.69999999553,1407.0,1669829316547,1407,HRV,HRV_0004,2022-11-30 17:31:50
69,"[{'imgObject': {}, 'id': 'mashed potato', 'src': '/static/foodstim60/mashed potato.jpg', 'key': 'u', 'origWidth': 409, 'origHeight': 409, 'width': 409, 'height': 409, 'widthPercent': 0.45, 'rescaleHeight': False, 'trialN': 69, 'loaded': True, 'loadedTime': 2406.5, 'positionName': 'LEFT', 'positionCoords': [512.6, 335.5], 'bid': 0.05}, {'imgObject': {}, 'id': 'rigatoni and sauce', 'src': '/static/foodstim60/rigatoni and sauce.jpg', 'key': 'i', 'origWidth': 410, 'origHeight': 411, 'width': 410, 'height': 411, 'widthPercent': 0.45, 'rescaleHeight': False, 'trialN': 69, 'loaded': True, 'loadedTime': 2375.5999999940395, 'positionName': 'RIGHT', 'positionCoords': [998.4, 334.5], 'bid': 0.05}]",125844.89999999851,1669829316547,mashed potato,rigatoni and sauce,0.05,0.05,0.0,mashed potato,984.6000000014901,985,985.1000000014901,True,u,127337.39999999851,1492.5,1669829318039,1492,HRV,HRV_0004,2022-11-30 17:31:50
70,"[{'imgObject': {}, 'id': 'shreddedwheatwithmilk', 'src': '/static/foodstim60/shreddedwheatwithmilk.jpg', 'key': 'u', 'origWidth': 410, 'origHeight': 410, 'width': 410, 'height': 410, 'widthPercent': 0.45, 'rescaleHeight': False, 'trialN': 70, 'loaded': True, 'loadedTime': 2240.6999999955297, 'positionName': 'LEFT', 'positionCoords': [511.6, 335], 'bid': 0.12}, {'imgObject': {}, 'id': 'mac & cheese', 'src': '/static/foodstim60/mac & cheese.jpg', 'key': 'i', 'origWidth': 410, 'origHeight': 410, 'width': 410, 'height': 410, 'widthPercent': 0.45, 'rescaleHeight': False, 'trialN': 70, 'loaded': True, 'loadedTime': 2218.0999999940395, 'positionName': 'RIGHT', 'positionCoords': [998.4, 335], 'bid': 0.09}]",127337.59999999404,1669829318039,shreddedwheatwithmilk,mac & cheese,0.12,0.09,-0.03,mac & cheese,892.2000000029802,893,892.7000000029802,True,i,128732.5,1394.9000000059605,1669829319434,1395,HRV,HRV_0004,2022-11-30 17:31:50
71,"[{'imgObject': {}, 'id': 'fried eggs', 'src': '/static/foodstim60/fried eggs.jpg', 'key': 'u', 'origWidth': 410, 'origHeight': 410, 'width': 410, 'height': 410, 'widthPercent': 0.45, 'rescaleHeight': False, 'trialN': 71, 'loaded': True, 'loadedTime': 2409, 'positionName': 'LEFT', 'positionCoords': [511.6, 335], 'bid': 0.1}, {'imgObject': {}, 'id': 'popsicles', 'src': '/static/foodstim60/popsicles.jpg', 'key': 'i', 'origWidth': 410, 'origHeight': 410, 'width': 410, 'height': 410, 'widthPercent': 0.45, 'rescaleHeight': False, 'trialN': 71, 'loaded': True, 'loadedTime': 2407.1999999955297, 'positionName': 'RIGHT', 'positionCoords': [998.4, 335], 'bid': 0}]",128732.69999999553,1669829319435,fried eggs,popsicles,0.1,0.0,-0.1,fried eggs,769.2000000029802,769,769.7000000029802,True,u,130012.69999999553,1280.0,1669829320714,1279,HRV,HRV_0004,2022-11-30 17:31:50
72,"[{'imgObject': {}, 'id': 'fruitsalad', 'src': '/static/foodstim60/fruitsalad.jpg', 'key': 'u', 'origWidth': 410, 'origHeight': 410, 'width': 410, 'height': 410, 'widthPercent': 0.45, 'rescaleHeight': False, 'trialN': 72, 'loaded': True, 'loadedTime': 2169.89999999851, 'positionName': 'LEFT', 'positionCoords': [511.6, 335], 'bid': 0.05}, {'imgObject': {}, 'id': 'pear', 'src': '/static/foodstim60/pear.jpg', 'key': 'i', 'origWidth': 411, 'origHeight': 410, 'width': 411, 'height': 410, 'widthPercent': 0.45, 'rescaleHeight': False, 'trialN': 72, 'loaded': True, 'loadedTime': 2413.7999999970198, 'positionName': 'RIGHT', 'positionCoords': [998.4, 335], 'bid': 5.0600000000000005}]",130012.79999999702,1669829320715,fruitsalad,pear,0.05,5.0600000000000005,5.010000000000001,pear,1017.3999999985099,1017,1017.7000000029802,True,i,131549.3999999985,1536.6000000014901,1669829322251,1536,HRV,HRV_0004,2022-11-30 17:31:50
73,"[{'imgObject': {}, 'id': 'cocktailshrimp', 'src': '/static/foodstim60/cocktailshrimp.jpg', 'key': 'u', 'origWidth': 410, 'origHeight': 410, 'width': 410, 'height': 410, 'widthPercent': 0.45, 'rescaleHeight': False, 'trialN': 73, 'loaded': True, 'loadedTime': 2339.7999999970198, 'positionName': 'LEFT', 'positionCoords': [511.6, 335], 'bid': 9.97}, {'imgObject': {}, 'id': 'olives', 'src': '/static/foodstim60/olives.jpg', 'key': 'i', 'origWidth': 410, 'origHeight': 410, 'width': 410, 'height': 410, 'widthPercent': 0.45, 'rescaleHeight': False, 'trialN': 73, 'loaded': True, 'loadedTime': 2396.89999999851, 'positionName': 'RIGHT', 'positionCoords': [998.4, 335], 'bid': 0.09}]",131549.59999999404,1669829322251,cocktailshrimp,olives,9.97,0.09,-9.88,cocktailshrimp,887.8000000044703,889,888.3000000044703,True,u,132953.79999999702,1404.2000000029802,1669829323656,1405,HRV,HRV_0004,2022-11-30 17:31:50
74,"[{'imgObject': {}, 'id': 'apple slices', 'src': '/static/foodstim60/apple slices.jpg', 'key': 'u', 'origWidth': 409, 'origHeight': 410, 'width': 409, 'height': 410, 'widthPercent': 0.45, 'rescaleHeight': False, 'trialN': 74, 'loaded': True, 'loadedTime': 2241.39999999851, 'positionName': 'LEFT', 'positionCoords': [512.6, 335], 'bid': 5.0600000000000005}, {'imgObject': {}, 'id': 'pear', 'src': '/static/foodstim60/pear.jpg', 'key': 'i', 'origWidth': 411, 'origHeight': 410, 'width': 411, 'height': 410, 'widthPercent': 0.45, 'rescaleHeight': False, 'trialN': 74, 'loaded': True, 'loadedTime': 2413, 'positionName': 'RIGHT', 'positionCoords': [998.4, 335], 'bid': 5.0600000000000005}]",132954.0,1669829323656,apple slices,pear,5.0600000000000005,5.0600000000000005,0.0,pear,1707.6999999955297,1708,1708.1999999955297,True,i,135185.3999999985,2231.39999999851,1669829325887,2231,HRV,HRV_0004,2022-11-30 17:31:50
75,"[{'imgObject': {}, 'id': 'cocktailshrimp', 'src': '/static/foodstim60/cocktailshrimp.jpg', 'key': 'u', 'origWidth': 410, 'origHeight': 410, 'width': 410, 'height': 410, 'widthPercent': 0.45, 'rescaleHeight': False, 'trialN': 75, 'loaded': True, 'loadedTime': 2339.6999999955297, 'positionName': 'LEFT', 'positionCoords': [511.6, 335], 'bid': 9.97}, {'imgObject': {}, 'id': 'froot loops w milk', 'src': '/static/foodstim60/froot loops w milk.jpg', 'key': 'i', 'origWidth': 410, 'origHeight': 410, 'width': 410, 'height': 410, 'widthPercent': 0.45, 'rescaleHeight': False, 'trialN': 75, 'loaded': True, 'loadedTime': 2303.5999999940395, 'positionName': 'RIGHT', 'positionCoords': [998.4, 335], 'bid': 7.5}]",135185.59999999404,1669829325887,cocktailshrimp,froot loops w milk,9.97,7.5,-2.4700000000000006,cocktailshrimp,1115.9000000059605,1117,1116.3000000044703,True,u,136815.59999999404,1630.0,1669829327517,1630,HRV,HRV_0004,2022-11-30 17:31:50
76,"[{'imgObject': {}, 'id': 'veggieswithdip', 'src': '/static/foodstim60/veggieswithdip.jpg', 'key': 'u', 'origWidth': 409, 'origHeight': 409, 'width': 409, 'height': 409, 'widthPercent': 0.45, 'rescaleHeight': False, 'trialN': 76, 'loaded': True, 'loadedTime': 2414.5, 'positionName': 'LEFT', 'positionCoords': [512.6, 335.5], 'bid': 8.1}, {'imgObject': {}, 'id': 'banana', 'src': '/static/foodstim60/banana.jpg', 'key': 'i', 'origWidth': 410, 'origHeight': 410, 'width': 410, 'height': 410, 'widthPercent': 0.45, 'rescaleHeight': False, 'trialN': 76, 'loaded': True, 'loadedTime': 2415.6999999955297, 'positionName': 'RIGHT', 'positionCoords': [998.4, 335], 'bid': 9.94}]",136815.79999999702,1669829327518,veggieswithdip,banana,8.1,9.94,1.8399999999999999,veggieswithdip,797.7000000029802,798,798.3999999985099,True,u,138129.5,1313.7000000029802,1669829328831,1313,HRV,HRV_0004,2022-11-30 17:31:50
77,"[{'imgObject': {}, 'id': 'raisin bran w milk', 'src': '/static/foodstim60/raisin bran w milk.jpg', 'key': 'u', 'origWidth': 411, 'origHeight': 411, 'width': 411, 'height': 411, 'widthPercent': 0.45, 'rescaleHeight': False, 'trialN': 77, 'loaded': True, 'loadedTime': 2404.2999999970198, 'positionName': 'LEFT', 'positionCoords': [510.6, 334.5], 'bid': 0.05}, {'imgObject': {}, 'id': 'kiwi', 'src': '/static/foodstim60/kiwi.jpg', 'key': 'i', 'origWidth': 410, 'origHeight': 410, 'width': 410, 'height': 410, 'widthPercent': 0.45, 'rescaleHeight': False, 'trialN': 77, 'loaded': True, 'loadedTime': 2213.6999999955297, 'positionName': 'RIGHT', 'positionCoords': [998.4, 335], 'bid': 0.03}]",138129.79999999702,1669829328832,raisin bran w milk,kiwi,0.05,0.03,-0.020000000000000004,raisin bran w milk,1419.1000000014901,1419,1419.5,True,u,140063.5,1933.7000000029802,1669829330765,1933,HRV,HRV_0004,2022-11-30 17:31:50
78,"[{'imgObject': {}, 'id': 'eggsalad', 'src': '/static/foodstim60/eggsalad.jpg', 'key': 'u', 'origWidth': 410, 'origHeight': 409, 'width': 410, 'height': 409, 'widthPercent': 0.45, 'rescaleHeight': False, 'trialN': 78, 'loaded': True, 'loadedTime': 2401.0999999940395, 'positionName': 'LEFT', 'positionCoords': [511.6, 335.5], 'bid': 0.05}, {'imgObject': {}, 'id': 'cherries', 'src': '/static/foodstim60/cherries.jpg', 'key': 'i', 'origWidth': 410, 'origHeight': 411, 'width': 410, 'height': 411, 'widthPercent': 0.45, 'rescaleHeight': False, 'trialN': 78, 'loaded': True, 'loadedTime': 2308.89999999851, 'positionName': 'RIGHT', 'positionCoords': [998.4, 334.5], 'bid': 0.02}]",140063.79999999702,1669829330766,eggsalad,cherries,0.05,0.02,-0.030000000000000002,eggsalad,1157.1000000014901,1157,1157.6000000014901,True,u,141736.29999999702,1672.5,1669829332438,1672,HRV,HRV_0004,2022-11-30 17:31:50
79,"[{'imgObject': {}, 'id': 'cherries', 'src': '/static/foodstim60/cherries.jpg', 'key': 'u', 'origWidth': 410, 'origHeight': 411, 'width': 410, 'height': 411, 'widthPercent': 0.45, 'rescaleHeight': False, 'trialN': 79, 'loaded': True, 'loadedTime': 2304.0999999940395, 'positionName': 'LEFT', 'positionCoords': [511.6, 334.5], 'bid': 0.02}, {'imgObject': {}, 'id': 'omelette', 'src': '/static/foodstim60/omelette.jpg', 'key': 'i', 'origWidth': 410, 'origHeight': 409, 'width': 410, 'height': 409, 'widthPercent': 0.45, 'rescaleHeight': False, 'trialN': 79, 'loaded': True, 'loadedTime': 2148.7999999970198, 'positionName': 'RIGHT', 'positionCoords': [998.4, 335.5], 'bid': 0.12}]",141736.59999999404,1669829332438,cherries,omelette,0.02,0.12,0.09999999999999999,omelette,941.4000000059605,942,941.8000000044703,True,i,143197.59999999404,1461.0,1669829333899,1461,HRV,HRV_0004,2022-11-30 17:31:50
80,"[{'imgObject': {}, 'id': 'seaweed', 'src': '/static/foodstim60/seaweed.jpg', 'key': 'u', 'origWidth': 410, 'origHeight': 410, 'width': 410, 'height': 410, 'widthPercent': 0.45, 'rescaleHeight': False, 'trialN': 80, 'loaded': True, 'loadedTime': 2193.5999999940395, 'positionName': 'LEFT', 'positionCoords': [511.6, 335], 'bid': 0.03}, {'imgObject': {}, 'id': 'rigatoni', 'src': '/static/foodstim60/rigatoni.jpg', 'key': 'i', 'origWidth': 411, 'origHeight': 411, 'width': 411, 'height': 411, 'widthPercent': 0.45, 'rescaleHeight': False, 'trialN': 80, 'loaded': True, 'loadedTime': 2380.6999999955297, 'positionName': 'RIGHT', 'positionCoords': [998.4, 334.5], 'bid': 0.06}]",143197.79999999702,1669829333900,seaweed,rigatoni,0.03,0.06,0.03,rigatoni,1535.0,1535,1535.2999999970198,True,i,145237.5,2039.7000000029802,1669829335939,2039,HRV,HRV_0004,2022-11-30 17:31:50
81,"[{'imgObject': {}, 'id': 'avocado', 'src': '/static/foodstim60/avocado.jpg', 'key': 'u', 'origWidth': 409, 'origHeight': 409, 'width': 409, 'height': 409, 'widthPercent': 0.45, 'rescaleHeight': False, 'trialN': 81, 'loaded': True, 'loadedTime': 2417.7999999970198, 'positionName': 'LEFT', 'positionCoords': [512.6, 335.5], 'bid': 0.12}, {'imgObject': {}, 'id': 'Grapes', 'src': '/static/foodstim60/Grapes.jpg', 'key': 'i', 'origWidth': 411, 'origHeight': 411, 'width': 411, 'height': 411, 'widthPercent': 0.45, 'rescaleHeight': False, 'trialN': 81, 'loaded': True, 'loadedTime': 2279.1999999955297, 'positionName': 'RIGHT', 'positionCoords': [998.4, 334.5], 'bid': 5}]",145237.79999999702,1669829335940,avocado,Grapes,0.12,5.0,4.88,Grapes,928.0,928,928.3999999985099,True,i,146688.69999999553,1450.8999999985099,1669829337391,1451,HRV,HRV_0004,2022-11-30 17:31:50
82,"[{'imgObject': {}, 'id': 'Tribe humus pita', 'src': '/static/foodstim60/Tribe humus pita.jpg', 'key': 'u', 'origWidth': 411, 'origHeight': 411, 'width': 411, 'height': 411, 'widthPercent': 0.45, 'rescaleHeight': False, 'trialN': 82, 'loaded': True, 'loadedTime': 2158.7999999970198, 'positionName': 'LEFT', 'positionCoords': [510.6, 334.5], 'bid': 0.07}, {'imgObject': {}, 'id': 'corn cob', 'src': '/static/foodstim60/corn cob.jpg', 'key': 'i', 'origWidth': 411, 'origHeight': 411, 'width': 411, 'height': 411, 'widthPercent': 0.45, 'rescaleHeight': False, 'trialN': 82, 'loaded': True, 'loadedTime': 2188.5, 'positionName': 'RIGHT', 'positionCoords': [998.4, 334.5], 'bid': 0.01}]",146689.0,1669829337391,Tribe humus pita,corn cob,0.07,0.01,-0.060000000000000005,corn cob,1077.0,1077,1077.3999999985099,True,i,148283.0,1594.0,1669829338985,1594,HRV,HRV_0004,2022-11-30 17:31:50
83,"[{'imgObject': {}, 'id': 'pear', 'src': '/static/foodstim60/pear.jpg', 'key': 'u', 'origWidth': 411, 'origHeight': 410, 'width': 411, 'height': 410, 'widthPercent': 0.45, 'rescaleHeight': False, 'trialN': 83, 'loaded': True, 'loadedTime': 2413.5999999940395, 'positionName': 'LEFT', 'positionCoords': [510.6, 335], 'bid': 5.0600000000000005}, {'imgObject': {}, 'id': 'steak', 'src': '/static/foodstim60/steak.jpg', 'key': 'i', 'origWidth': 410, 'origHeight': 410, 'width': 410, 'height': 410, 'widthPercent': 0.45, 'rescaleHeight': False, 'trialN': 83, 'loaded': True, 'loadedTime': 2360.7999999970198, 'positionName': 'RIGHT', 'positionCoords': [998.4, 335], 'bid': 9.97}]",148283.3999999985,1669829338985,pear,steak,5.0600000000000005,9.97,4.91,steak,1266.2999999970198,1267,1266.7999999970198,True,i,150072.5,1789.1000000014901,1669829340774,1789,HRV,HRV_0004,2022-11-30 17:31:50
84,"[{'imgObject': {}, 'id': 'apple slices', 'src': '/static/foodstim60/apple slices.jpg', 'key': 'u', 'origWidth': 409, 'origHeight': 410, 'width': 409, 'height': 410, 'widthPercent': 0.45, 'rescaleHeight': False, 'trialN': 84, 'loaded': True, 'loadedTime': 2241.5, 'positionName': 'LEFT', 'positionCoords': [512.6, 335], 'bid': 5.0600000000000005}, {'imgObject': {}, 'id': 'fried eggs', 'src': '/static/foodstim60/fried eggs.jpg', 'key': 'i', 'origWidth': 410, 'origHeight': 410, 'width': 410, 'height': 410, 'widthPercent': 0.45, 'rescaleHeight': False, 'trialN': 84, 'loaded': True, 'loadedTime': 2409, 'positionName': 'RIGHT', 'positionCoords': [998.4, 335], 'bid': 0.1}]",150072.69999999553,1669829340775,apple slices,fried eggs,5.0600000000000005,0.1,-4.960000000000001,apple slices,765.1000000014901,765,765.6000000014901,True,u,151357.5,1284.8000000044703,1669829342059,1284,HRV,HRV_0004,2022-11-30 17:31:50
85,"[{'imgObject': {}, 'id': 'granola w milk', 'src': '/static/foodstim60/granola w milk.jpg', 'key': 'u', 'origWidth': 410, 'origHeight': 410, 'width': 410, 'height': 410, 'widthPercent': 0.45, 'rescaleHeight': False, 'trialN': 85, 'loaded': True, 'loadedTime': 2407.89999999851, 'positionName': 'LEFT', 'positionCoords': [511.6, 335], 'bid': 0.08}, {'imgObject': {}, 'id': 'sushi w_condiments', 'src': '/static/foodstim60/sushi w_condiments.jpg', 'key': 'i', 'origWidth': 410, 'origHeight': 410, 'width': 410, 'height': 410, 'widthPercent': 0.45, 'rescaleHeight': False, 'trialN': 85, 'loaded': True, 'loadedTime': 2350, 'positionName': 'RIGHT', 'positionCoords': [998.4, 335], 'bid': 0.07}]",151357.69999999553,1669829342060,granola w milk,sushi w_condiments,0.08,0.07,-0.009999999999999995,granola w milk,912.1000000014901,912,912.6000000014901,True,u,152783.3999999985,1425.7000000029802,1669829343485,1425,HRV,HRV_0004,2022-11-30 17:31:50
86,"[{'imgObject': {}, 'id': 'eggs', 'src': '/static/foodstim60/eggs.jpg', 'key': 'u', 'origWidth': 409, 'origHeight': 409, 'width': 409, 'height': 409, 'widthPercent': 0.45, 'rescaleHeight': False, 'trialN': 86, 'loaded': True, 'loadedTime': 2270.0999999940395, 'positionName': 'LEFT', 'positionCoords': [512.6, 335.5], 'bid': 9.91}, {'imgObject': {}, 'id': 'yogurt no spoon', 'src': '/static/foodstim60/yogurt no spoon.jpg', 'key': 'i', 'origWidth': 411, 'origHeight': 410, 'width': 411, 'height': 410, 'widthPercent': 0.45, 'rescaleHeight': False, 'trialN': 86, 'loaded': True, 'loadedTime': 2324.5, 'positionName': 'RIGHT', 'positionCoords': [998.4, 335], 'bid': 0.08}]",152783.69999999553,1669829343486,eggs,yogurt no spoon,9.91,0.08,-9.83,eggs,1142.0,1142,1142.5,True,u,154439.5,1655.8000000044703,1669829345141,1655,HRV,HRV_0004,2022-11-30 17:31:50
87,"[{'imgObject': {}, 'id': 'sweetpotato', 'src': '/static/foodstim60/sweetpotato.jpg', 'key': 'u', 'origWidth': 410, 'origHeight': 410, 'width': 410, 'height': 410, 'widthPercent': 0.45, 'rescaleHeight': False, 'trialN': 87, 'loaded': True, 'loadedTime': 2385.2999999970198, 'positionName': 'LEFT', 'positionCoords': [511.6, 335], 'bid': 0}, {'imgObject': {}, 'id': 'popsicles', 'src': '/static/foodstim60/popsicles.jpg', 'key': 'i', 'origWidth': 410, 'origHeight': 410, 'width': 410, 'height': 410, 'widthPercent': 0.45, 'rescaleHeight': False, 'trialN': 87, 'loaded': True, 'loadedTime': 2407.2999999970198, 'positionName': 'RIGHT', 'positionCoords': [998.4, 335], 'bid': 0}]",154439.69999999553,1669829345142,sweetpotato,popsicles,0.0,0.0,0.0,popsicles,838.5,838,838.8999999985099,True,i,155797.59999999404,1357.8999999985099,1669829346499,1357,HRV,HRV_0004,2022-11-30 17:31:50
88,"[{'imgObject': {}, 'id': 'rigatoni', 'src': '/static/foodstim60/rigatoni.jpg', 'key': 'u', 'origWidth': 411, 'origHeight': 411, 'width': 411, 'height': 411, 'widthPercent': 0.45, 'rescaleHeight': False, 'trialN': 88, 'loaded': True, 'loadedTime': 2379.7999999970198, 'positionName': 'LEFT', 'positionCoords': [510.6, 334.5], 'bid': 0.06}, {'imgObject': {}, 'id': 'grilled chicken strips', 'src': '/static/foodstim60/grilled chicken strips.jpg', 'key': 'i', 'origWidth': 410, 'origHeight': 411, 'width': 410, 'height': 411, 'widthPercent': 0.45, 'rescaleHeight': False, 'trialN': 88, 'loaded': True, 'loadedTime': 2232.0999999940395, 'positionName': 'RIGHT', 'positionCoords': [998.4, 334.5], 'bid': 0.05}]",155797.8999999985,1669829346500,rigatoni,grilled chicken strips,0.06,0.05,-0.009999999999999995,grilled chicken strips,806.3999999985099,806,806.6000000014901,True,i,157109.5,1311.6000000014901,1669829347811,1311,HRV,HRV_0004,2022-11-30 17:31:50
89,"[{'imgObject': {}, 'id': 'shreddedwheatwithmilk', 'src': '/static/foodstim60/shreddedwheatwithmilk.jpg', 'key': 'u', 'origWidth': 410, 'origHeight': 410, 'width': 410, 'height': 410, 'widthPercent': 0.45, 'rescaleHeight': False, 'trialN': 89, 'loaded': True, 'loadedTime': 2236.5999999940395, 'positionName': 'LEFT', 'positionCoords': [511.6, 335], 'bid': 0.12}, {'imgObject': {}, 'id': 'turkeysandwich', 'src': '/static/foodstim60/turkeysandwich.jpg', 'key': 'i', 'origWidth': 409, 'origHeight': 409, 'width': 409, 'height': 409, 'widthPercent': 0.45, 'rescaleHeight': False, 'trialN': 89, 'loaded': True, 'loadedTime': 2390.7999999970198, 'positionName': 'RIGHT', 'positionCoords': [998.4, 335.5], 'bid': 0.13}]",157109.79999999702,1669829347812,shreddedwheatwithmilk,turkeysandwich,0.12,0.13,0.010000000000000009,turkeysandwich,832.6000000014901,833,833.0,True,i,158455.3999999985,1345.6000000014901,1669829349157,1345,HRV,HRV_0004,2022-11-30 17:31:50
90,"[{'imgObject': {}, 'id': 'hotdog w must', 'src': '/static/foodstim60/hotdog w must.jpg', 'key': 'u', 'origWidth': 409, 'origHeight': 409, 'width': 409, 'height': 409, 'widthPercent': 0.45, 'rescaleHeight': False, 'trialN': 90, 'loaded': True, 'loadedTime': 2294.0999999940395, 'positionName': 'LEFT', 'positionCoords': [512.6, 335.5], 'bid': 0.1}, {'imgObject': {}, 'id': 'bagel and cc', 'src': '/static/foodstim60/bagel and cc.jpg', 'key': 'i', 'origWidth': 410, 'origHeight': 410, 'width': 410, 'height': 410, 'widthPercent': 0.45, 'rescaleHeight': False, 'trialN': 90, 'loaded': True, 'loadedTime': 2110.2999999970198, 'positionName': 'RIGHT', 'positionCoords': [998.4, 335], 'bid': 0.07}]",161131.59999999404,1669829351833,hotdog w must,bagel and cc,0.1,0.07,-0.03,bagel and cc,1522.3000000044703,1523,1522.6000000014901,True,i,163174.8999999985,2043.3000000044703,1669829353877,2044,HRV,HRV_0004,2022-11-30 17:31:50
91,"[{'imgObject': {}, 'id': 'chicken nuggets2', 'src': '/static/foodstim60/chicken nuggets2.jpg', 'key': 'u', 'origWidth': 410, 'origHeight': 409, 'width': 410, 'height': 409, 'widthPercent': 0.45, 'rescaleHeight': False, 'trialN': 91, 'loaded': True, 'loadedTime': 2251.1999999955297, 'positionName': 'LEFT', 'positionCoords': [511.6, 335.5], 'bid': 5.01}, {'imgObject': {}, 'id': 'Grapes', 'src': '/static/foodstim60/Grapes.jpg', 'key': 'i', 'origWidth': 411, 'origHeight': 411, 'width': 411, 'height': 411, 'widthPercent': 0.45, 'rescaleHeight': False, 'trialN': 91, 'loaded': True, 'loadedTime': 2275.1999999955297, 'positionName': 'RIGHT', 'positionCoords': [998.4, 334.5], 'bid': 5}]",163175.59999999404,1669829353877,chicken nuggets2,Grapes,5.01,5.0,-0.009999999999999787,chicken nuggets2,757.9000000059605,759,758.4000000059605,True,u,164446.3999999985,1270.8000000044703,1669829355148,1271,HRV,HRV_0004,2022-11-30 17:31:50
92,"[{'imgObject': {}, 'id': 'corn cob', 'src': '/static/foodstim60/corn cob.jpg', 'key': 'u', 'origWidth': 411, 'origHeight': 411, 'width': 411, 'height': 411, 'widthPercent': 0.45, 'rescaleHeight': False, 'trialN': 92, 'loaded': True, 'loadedTime': 2188.89999999851, 'positionName': 'LEFT', 'positionCoords': [510.6, 334.5], 'bid': 0.01}, {'imgObject': {}, 'id': 'raisin bran w milk', 'src': '/static/foodstim60/raisin bran w milk.jpg', 'key': 'i', 'origWidth': 411, 'origHeight': 411, 'width': 411, 'height': 411, 'widthPercent': 0.45, 'rescaleHeight': False, 'trialN': 92, 'loaded': True, 'loadedTime': 2405.6999999955297, 'positionName': 'RIGHT', 'positionCoords': [998.4, 334.5], 'bid': 0.05}]",164446.59999999404,1669829355148,corn cob,raisin bran w milk,0.01,0.05,0.04,corn cob,895.5,896,895.9000000059605,True,u,165861.3999999985,1414.8000000044703,1669829356563,1415,HRV,HRV_0004,2022-11-30 17:31:50
93,"[{'imgObject': {}, 'id': 'blackbeanswithrice', 'src': '/static/foodstim60/blackbeanswithrice.jpg', 'key': 'u', 'origWidth': 410, 'origHeight': 410, 'width': 410, 'height': 410, 'widthPercent': 0.45, 'rescaleHeight': False, 'trialN': 93, 'loaded': True, 'loadedTime': 2179.89999999851, 'positionName': 'LEFT', 'positionCoords': [511.6, 335], 'bid': 0.06}, {'imgObject': {}, 'id': 'veggieswithdip', 'src': '/static/foodstim60/veggieswithdip.jpg', 'key': 'i', 'origWidth': 409, 'origHeight': 409, 'width': 409, 'height': 409, 'widthPercent': 0.45, 'rescaleHeight': False, 'trialN': 93, 'loaded': True, 'loadedTime': 2413.7999999970198, 'positionName': 'RIGHT', 'positionCoords': [998.4, 335.5], 'bid': 8.1}]",165861.59999999404,1669829356564,blackbeanswithrice,veggieswithdip,0.06,8.1,8.04,blackbeanswithrice,1624.3000000044703,1624,1624.7000000029802,True,u,168008.29999999702,2146.7000000029802,1669829358710,2146,HRV,HRV_0004,2022-11-30 17:31:50
94,"[{'imgObject': {}, 'id': 'raspberries', 'src': '/static/foodstim60/raspberries.jpg', 'key': 'u', 'origWidth': 411, 'origHeight': 411, 'width': 411, 'height': 411, 'widthPercent': 0.45, 'rescaleHeight': False, 'trialN': 94, 'loaded': True, 'loadedTime': 2202.7999999970198, 'positionName': 'LEFT', 'positionCoords': [510.6, 334.5], 'bid': 0.13}, {'imgObject': {}, 'id': 'baked potato', 'src': '/static/foodstim60/baked potato.jpg', 'key': 'i', 'origWidth': 409, 'origHeight': 410, 'width': 409, 'height': 410, 'widthPercent': 0.45, 'rescaleHeight': False, 'trialN': 94, 'loaded': True, 'loadedTime': 2403.2999999970198, 'positionName': 'RIGHT', 'positionCoords': [998.4, 335], 'bid': 0.14}]",168008.5,1669829358710,raspberries,baked potato,0.13,0.14,0.010000000000000009,baked potato,1261.3999999985099,1262,1262.0,True,i,169780.3999999985,1771.8999999985099,1669829360482,1772,HRV,HRV_0004,2022-11-30 17:31:50
95,"[{'imgObject': {}, 'id': 'blueberries', 'src': '/static/foodstim60/blueberries.jpg', 'key': 'u', 'origWidth': 411, 'origHeight': 411, 'width': 411, 'height': 411, 'widthPercent': 0.45, 'rescaleHeight': False, 'trialN': 95, 'loaded': True, 'loadedTime': 2325.5999999940395, 'positionName': 'LEFT', 'positionCoords': [510.6, 334.5], 'bid': 0.12}, {'imgObject': {}, 'id': 'burger', 'src': '/static/foodstim60/burger.jpg', 'key': 'i', 'origWidth': 409, 'origHeight': 409, 'width': 409, 'height': 409, 'widthPercent': 0.45, 'rescaleHeight': False, 'trialN': 95, 'loaded': True, 'loadedTime': 2374.5, 'positionName': 'RIGHT', 'positionCoords': [998.4, 335.5], 'bid': 0.1}]",169780.59999999404,1669829360482,blueberries,burger,0.12,0.1,-0.01999999999999999,burger,1135.7000000029802,1136,1135.9000000059605,True,i,171430.5,1649.9000000059605,1669829362132,1650,HRV,HRV_0004,2022-11-30 17:31:50
96,"[{'imgObject': {}, 'id': 'Tribe humus pita', 'src': '/static/foodstim60/Tribe humus pita.jpg', 'key': 'u', 'origWidth': 411, 'origHeight': 411, 'width': 411, 'height': 411, 'widthPercent': 0.45, 'rescaleHeight': False, 'trialN': 96, 'loaded': True, 'loadedTime': 2159.1999999955297, 'positionName': 'LEFT', 'positionCoords': [510.6, 334.5], 'bid': 0.07}, {'imgObject': {}, 'id': 'strawberries', 'src': '/static/foodstim60/strawberries.jpg', 'key': 'i', 'origWidth': 410, 'origHeight': 410, 'width': 410, 'height': 410, 'widthPercent': 0.45, 'rescaleHeight': False, 'trialN': 96, 'loaded': True, 'loadedTime': 2294.1999999955297, 'positionName': 'RIGHT', 'positionCoords': [998.4, 335], 'bid': 8.69}]",171430.59999999404,1669829362133,Tribe humus pita,strawberries,0.07,8.69,8.62,strawberries,670.4000000059605,670,670.9000000059605,True,i,172607.09999999404,1176.5,1669829363309,1176,HRV,HRV_0004,2022-11-30 17:31:50
97,"[{'imgObject': {}, 'id': 'cocktailshrimp', 'src': '/static/foodstim60/cocktailshrimp.jpg', 'key': 'u', 'origWidth': 410, 'origHeight': 410, 'width': 410, 'height': 410, 'widthPercent': 0.45, 'rescaleHeight': False, 'trialN': 97, 'loaded': True, 'loadedTime': 2335.39999999851, 'positionName': 'LEFT', 'positionCoords': [511.6, 335], 'bid': 9.97}, {'imgObject': {}, 'id': 'cheerios', 'src': '/static/foodstim60/cheerios.jpg', 'key': 'i', 'origWidth': 409, 'origHeight': 410, 'width': 409, 'height': 410, 'widthPercent': 0.45, 'rescaleHeight': False, 'trialN': 97, 'loaded': True, 'loadedTime': 2345.2999999970198, 'positionName': 'RIGHT', 'positionCoords': [998.4, 335], 'bid': 4.96}]",172607.29999999702,1669829363309,cocktailshrimp,cheerios,9.97,4.96,-5.010000000000001,cocktailshrimp,677.7999999970198,678,678.2999999970198,True,u,173797.29999999702,1190.0,1669829364499,1190,HRV,HRV_0004,2022-11-30 17:31:50
98,"[{'imgObject': {}, 'id': 'blackbeanswithrice', 'src': '/static/foodstim60/blackbeanswithrice.jpg', 'key': 'u', 'origWidth': 410, 'origHeight': 410, 'width': 410, 'height': 410, 'widthPercent': 0.45, 'rescaleHeight': False, 'trialN': 98, 'loaded': True, 'loadedTime': 2180, 'positionName': 'LEFT', 'positionCoords': [511.6, 335], 'bid': 0.06}, {'imgObject': {}, 'id': 'mashed potato', 'src': '/static/foodstim60/mashed potato.jpg', 'key': 'i', 'origWidth': 409, 'origHeight': 409, 'width': 409, 'height': 409, 'widthPercent': 0.45, 'rescaleHeight': False, 'trialN': 98, 'loaded': True, 'loadedTime': 2405.7999999970198, 'positionName': 'RIGHT', 'positionCoords': [998.4, 335.5], 'bid': 0.05}]",173797.59999999404,1669829364499,blackbeanswithrice,mashed potato,0.06,0.05,-0.009999999999999995,blackbeanswithrice,878.7000000029802,879,878.9000000059605,True,u,175186.79999999702,1389.2000000029802,1669829365889,1390,HRV,HRV_0004,2022-11-30 17:31:50
99,"[{'imgObject': {}, 'id': 'fried eggs', 'src': '/static/foodstim60/fried eggs.jpg', 'key': 'u', 'origWidth': 410, 'origHeight': 410, 'width': 410, 'height': 410, 'widthPercent': 0.45, 'rescaleHeight': False, 'trialN': 99, 'loaded': True, 'loadedTime': 2408.89999999851, 'positionName': 'LEFT', 'positionCoords': [511.6, 335], 'bid': 0.1}, {'imgObject': {}, 'id': 'burger', 'src': '/static/foodstim60/burger.jpg', 'key': 'i', 'origWidth': 409, 'origHeight': 409, 'width': 409, 'height': 409, 'widthPercent': 0.45, 'rescaleHeight': False, 'trialN': 99, 'loaded': True, 'loadedTime': 2370.7999999970198, 'positionName': 'RIGHT', 'positionCoords': [998.4, 335.5], 'bid': 0.1}]",175187.09999999404,1669829365889,fried eggs,burger,0.1,0.1,0.0,fried eggs,1091.3000000044703,1092,1091.8000000044703,True,u,176797.0,1609.9000000059605,1669829367499,1610,HRV,HRV_0004,2022-11-30 17:31:50
100,"[{'imgObject': {}, 'id': 'rigatoni and sauce', 'src': '/static/foodstim60/rigatoni and sauce.jpg', 'key': 'u', 'origWidth': 410, 'origHeight': 411, 'width': 410, 'height': 411, 'widthPercent': 0.45, 'rescaleHeight': False, 'trialN': 100, 'loaded': True, 'loadedTime': 2375.7999999970198, 'positionName': 'LEFT', 'positionCoords': [511.6, 334.5], 'bid': 0.05}, {'imgObject': {}, 'id': 'bagel plain', 'src': '/static/foodstim60/bagel plain.jpg', 'key': 'i', 'origWidth': 410, 'origHeight': 410, 'width': 410, 'height': 410, 'widthPercent': 0.45, 'rescaleHeight': False, 'trialN': 100, 'loaded': True, 'loadedTime': 2391.2999999970198, 'positionName': 'RIGHT', 'positionCoords': [998.4, 335], 'bid': 0.05}]",176797.29999999702,1669829367499,rigatoni and sauce,bagel plain,0.05,0.05,0.0,bagel plain,1416.7999999970198,1417,1417.2000000029802,True,i,178735.5,1938.2000000029802,1669829369437,1938,HRV,HRV_0004,2022-11-30 17:31:50
101,"[{'imgObject': {}, 'id': 'salmon', 'src': '/static/foodstim60/salmon.jpg', 'key': 'u', 'origWidth': 410, 'origHeight': 409, 'width': 410, 'height': 409, 'widthPercent': 0.45, 'rescaleHeight': False, 'trialN': 101, 'loaded': True, 'loadedTime': 2128.5, 'positionName': 'LEFT', 'positionCoords': [511.6, 335.5], 'bid': 0.12}, {'imgObject': {}, 'id': 'yogurt no spoon', 'src': '/static/foodstim60/yogurt no spoon.jpg', 'key': 'i', 'origWidth': 411, 'origHeight': 410, 'width': 411, 'height': 410, 'widthPercent': 0.45, 'rescaleHeight': False, 'trialN': 101, 'loaded': True, 'loadedTime': 2324.5999999940395, 'positionName': 'RIGHT', 'positionCoords': [998.4, 335], 'bid': 0.08}]",178735.59999999404,1669829369437,salmon,yogurt no spoon,0.12,0.08,-0.039999999999999994,salmon,1157.5,1158,1158.1000000014901,True,u,180405.79999999702,1670.2000000029802,1669829371108,1671,HRV,HRV_0004,2022-11-30 17:31:50
102,"[{'imgObject': {}, 'id': 'tacos', 'src': '/static/foodstim60/tacos.jpg', 'key': 'u', 'origWidth': 411, 'origHeight': 411, 'width': 411, 'height': 411, 'widthPercent': 0.45, 'rescaleHeight': False, 'trialN': 102, 'loaded': True, 'loadedTime': 2415.39999999851, 'positionName': 'LEFT', 'positionCoords': [510.6, 334.5], 'bid': 0.01}, {'imgObject': {}, 'id': 'cherries', 'src': '/static/foodstim60/cherries.jpg', 'key': 'i', 'origWidth': 410, 'origHeight': 411, 'width': 410, 'height': 411, 'widthPercent': 0.45, 'rescaleHeight': False, 'trialN': 102, 'loaded': True, 'loadedTime': 2304.6999999955297, 'positionName': 'RIGHT', 'positionCoords': [998.4, 334.5], 'bid': 0.02}]",180406.09999999404,1669829371108,tacos,cherries,0.01,0.02,0.01,tacos,607.9000000059605,608,608.4000000059605,True,u,181534.3999999985,1128.3000000044703,1669829372236,1128,HRV,HRV_0004,2022-11-30 17:31:50
103,"[{'imgObject': {}, 'id': 'raspberries', 'src': '/static/foodstim60/raspberries.jpg', 'key': 'u', 'origWidth': 411, 'origHeight': 411, 'width': 411, 'height': 411, 'widthPercent': 0.45, 'rescaleHeight': False, 'trialN': 103, 'loaded': True, 'loadedTime': 2212.5, 'positionName': 'LEFT', 'positionCoords': [510.6, 334.5], 'bid': 0.13}, {'imgObject': {}, 'id': 'banana', 'src': '/static/foodstim60/banana.jpg', 'key': 'i', 'origWidth': 410, 'origHeight': 410, 'width': 410, 'height': 410, 'widthPercent': 0.45, 'rescaleHeight': False, 'trialN': 103, 'loaded': True, 'loadedTime': 2416.0999999940395, 'positionName': 'RIGHT', 'positionCoords': [998.4, 335], 'bid': 9.94}]",181534.79999999702,1669829372237,raspberries,banana,0.13,9.94,9.809999999999999,banana,646.7999999970198,647,647.2000000029802,True,i,182685.5,1150.7000000029802,1669829373387,1150,HRV,HRV_0004,2022-11-30 17:31:50
104,"[{'imgObject': {}, 'id': 'cheerios', 'src': '/static/foodstim60/cheerios.jpg', 'key': 'u', 'origWidth': 409, 'origHeight': 410, 'width': 409, 'height': 410, 'widthPercent': 0.45, 'rescaleHeight': False, 'trialN': 104, 'loaded': True, 'loadedTime': 2345.2999999970198, 'positionName': 'LEFT', 'positionCoords': [512.6, 335], 'bid': 4.96}, {'imgObject': {}, 'id': 'baked potato', 'src': '/static/foodstim60/baked potato.jpg', 'key': 'i', 'origWidth': 409, 'origHeight': 410, 'width': 409, 'height': 410, 'widthPercent': 0.45, 'rescaleHeight': False, 'trialN': 104, 'loaded': True, 'loadedTime': 2403.5999999940395, 'positionName': 'RIGHT', 'positionCoords': [998.4, 335], 'bid': 0.14}]",182685.69999999553,1669829373388,cheerios,baked potato,4.96,0.14,-4.82,cheerios,759.5,759,759.8999999985099,True,u,183961.5,1275.8000000044703,1669829374663,1275,HRV,HRV_0004,2022-11-30 17:31:50
105,"[{'imgObject': {}, 'id': 'cherries', 'src': '/static/foodstim60/cherries.jpg', 'key': 'u', 'origWidth': 410, 'origHeight': 411, 'width': 410, 'height': 411, 'widthPercent': 0.45, 'rescaleHeight': False, 'trialN': 105, 'loaded': True, 'loadedTime': 2308.7999999970198, 'positionName': 'LEFT', 'positionCoords': [511.6, 334.5], 'bid': 0.02}, {'imgObject': {}, 'id': 'orange slices', 'src': '/static/foodstim60/orange slices.jpg', 'key': 'i', 'origWidth': 409, 'origHeight': 410, 'width': 409, 'height': 410, 'widthPercent': 0.45, 'rescaleHeight': False, 'trialN': 105, 'loaded': True, 'loadedTime': 2313.6999999955297, 'positionName': 'RIGHT', 'positionCoords': [998.4, 335], 'bid': 0}]",183961.69999999553,1669829374664,cherries,orange slices,0.02,0.0,-0.02,orange slices,842.5,842,842.8000000044703,True,i,185312.5,1350.8000000044703,1669829376014,1350,HRV,HRV_0004,2022-11-30 17:31:50
106,"[{'imgObject': {}, 'id': 'sweetpotato', 'src': '/static/foodstim60/sweetpotato.jpg', 'key': 'u', 'origWidth': 410, 'origHeight': 410, 'width': 410, 'height': 410, 'widthPercent': 0.45, 'rescaleHeight': False, 'trialN': 106, 'loaded': True, 'loadedTime': 2385.0999999940395, 'positionName': 'LEFT', 'positionCoords': [511.6, 335], 'bid': 0}, {'imgObject': {}, 'id': 'burrito', 'src': '/static/foodstim60/burrito.jpg', 'key': 'i', 'origWidth': 410, 'origHeight': 410, 'width': 410, 'height': 410, 'widthPercent': 0.45, 'rescaleHeight': False, 'trialN': 106, 'loaded': True, 'loadedTime': 2318.7999999970198, 'positionName': 'RIGHT', 'positionCoords': [998.4, 335], 'bid': 0}]",185312.69999999553,1669829376015,sweetpotato,burrito,0.0,0.0,0.0,burrito,804.3999999985099,804,804.8999999985099,True,i,186628.5,1315.8000000044703,1669829377330,1315,HRV,HRV_0004,2022-11-30 17:31:50
107,"[{'imgObject': {}, 'id': 'ice cream sundae 002', 'src': '/static/foodstim60/ice cream sundae 002.jpg', 'key': 'u', 'origWidth': 409, 'origHeight': 409, 'width': 409, 'height': 409, 'widthPercent': 0.45, 'rescaleHeight': False, 'trialN': 107, 'loaded': True, 'loadedTime': 2402.1999999955297, 'positionName': 'LEFT', 'positionCoords': [512.6, 335.5], 'bid': 0.1}, {'imgObject': {}, 'id': 'granola w milk', 'src': '/static/foodstim60/granola w milk.jpg', 'key': 'i', 'origWidth': 410, 'origHeight': 410, 'width': 410, 'height': 410, 'widthPercent': 0.45, 'rescaleHeight': False, 'trialN': 107, 'loaded': True, 'loadedTime': 2407.39999999851, 'positionName': 'RIGHT', 'positionCoords': [998.4, 335], 'bid': 0.08}]",186628.69999999553,1669829377331,ice cream sundae 002,granola w milk,0.1,0.08,-0.020000000000000004,ice cream sundae 002,752.8999999985099,753,753.3000000044703,True,u,187891.3999999985,1262.7000000029802,1669829378593,1262,HRV,HRV_0004,2022-11-30 17:31:50
108,"[{'imgObject': {}, 'id': 'avocado', 'src': '/static/foodstim60/avocado.jpg', 'key': 'u', 'origWidth': 409, 'origHeight': 409, 'width': 409, 'height': 409, 'widthPercent': 0.45, 'rescaleHeight': False, 'trialN': 108, 'loaded': True, 'loadedTime': 2417.7999999970198, 'positionName': 'LEFT', 'positionCoords': [512.6, 335.5], 'bid': 0.12}, {'imgObject': {}, 'id': 'turkeysandwich', 'src': '/static/foodstim60/turkeysandwich.jpg', 'key': 'i', 'origWidth': 409, 'origHeight': 409, 'width': 409, 'height': 409, 'widthPercent': 0.45, 'rescaleHeight': False, 'trialN': 108, 'loaded': True, 'loadedTime': 2386.0999999940395, 'positionName': 'RIGHT', 'positionCoords': [998.4, 335.5], 'bid': 0.13}]",187891.59999999404,1669829378593,avocado,turkeysandwich,0.12,0.13,0.010000000000000009,turkeysandwich,722.1000000014901,723,722.6000000014901,True,i,189125.3999999985,1233.8000000044703,1669829379827,1234,HRV,HRV_0004,2022-11-30 17:31:50
