success,trial_type,trial_index,time_elapsed,internal_node_id,Block,TrialNumber,TrialTime,trialTimeDiff,FPS_avg,FPS_med,FPS_mode,TrialDur,winResizeTime,rt,block,button_pressed,MotCoh,MotDir,ColCoh,Color,ChoiceKey,Choice,Accuracy,RT,nFrames,FPS,PPD,missTrial,missTrialMsg,onsetDelay,fullScreenExitTime,canvCenter,TrialType,Score,BlockTrial,stimulus,button_labels,exp,subjectId,date
True,fullscreen,0,2978,0.0-0.0,0.0,1.0,,,,,,,,,,,,,,,,,,,,,,,,,,,,,,,,HRV,HRV_0291,2022-11-30 21:05:04
,wl-check-fps,1,7971,0.0-1.0,0.0,2.0,"[3374.2, 3375.4, 3392.1, 3405.7, 3418.3, 3434.6, 3451.8, 3468.1, 3485, 3501.9, 3519.4, 3535.8, 3554.8, 3569.8, 3585.6, 3602.4, 3619, 3635.4, 3652.1, 3669, 3686.1, 3702.3, 3719.3, 3735.9, 3752.3, 3768.9, 3785.7, 3803.4, 3820.4, 3836.4, 3853.1, 3869.8, 3887.6, 3903.5, 3920.6, 3936.7, 3953.3, 3970.7, 3986.3, 4003.6, 4019.9, 4036, 4052.8, 4070.3, 4086.8, 4104, 4121.8, 4138, 4154.6, 4170.3, 4187, 4204.7, 4220.9, 4238.4, 4255.2, 4271.8, 4287.7, 4304.3, 4321.4, 4337.3, 4353.9, 4371.2, 4387.7, 4404.4, 4421.6, 4438, 4453.4, 4470.8, 4487.2, 4503.7, 4520.6, 4536.7, 4555.1, 4571.9, 4587.8, 4604.7, 4622.1, 4641.1, 4657.6, 4674.8, 4692.1, 4709, 4725.6, 4741.2, 4758.9, 4775.5, 4792.1, 4808.6, 4825.9, 4842.6, 4859.1, 4875.4, 4892.2, 4904, 4920.6, 4937.6, 4954.5, 4971.8, 4988.6, 5005, 5021.2, 5038.1, 5054.5, 5071.7, 5088.7, 5104.9, 5121.6, 5138.5, 5154.7, 5171.2, 5188, 5204.6, 5221.4, 5238, 5255.3, 5271.7, 5288.5, 5304, 5321.2, 5338.5, 5355.2, 5371, 5389.6, 5405.2, 5421.3, 5437.8, 5454.9, 5470.3, 5488.1, 5506.3, 5521.2, 5538.2, 5554.4, 5571.1, 5588.2, 5604.5, 5621.4, 5638.3, 5655.2, 5671.2, 5688.4, 5704.6, 5721.6, 5738.5, 5755.2, 5771.8, 5789, 5806, 5822.5, 5838.9, 5855.9, 5872.2, 5888, 5904.6, 5922, 5939.3, 5956.4, 5972.7, 5989, 6005.8, 6021.8, 6039.2, 6056.2, 6072.6, 6089.2, 6105.8, 6123.1, 6139.5, 6155.8, 6172.1, 6189.6, 6206, 6223.5, 6239.7, 6256, 6273.3, 6289.5, 6306, 6322.6, 6338.9, 6356.8, 6372.9, 6390.3, 6406.2, 6422.6, 6440.3, 6456.2, 6472.9, 6490.2, 6506.6, 6522.7, 6540.1, 6556.6, 6572.8, 6590.1, 6606.5, 6623.1, 6640.4, 6656, 6673.1, 6689.8, 6706.5, 6722.9, 6739.6, 6756.7, 6773.5, 6790.4, 6806.3, 6823.2, 6839.9, 6856.3, 6873.2, 6889.9, 6906.8, 6923.4, 6939.5, 6956.5, 6973.4, 6990.8, 7006.8, 7023.2, 7039.9, 7055.6, 7072.4, 7088.9, 7106.5, 7123.5, 7139.2, 7155.6, 7172.1, 7189, 7206.7, 7222.1, 7238.7, 7255.6, 7271.5, 7289.3, 7306.3, 7322.4, 7339.6, 7356.1, 7372, 7389.3, 7405.8, 7423.4, 7440.9, 7457.2, 7474.2, 7491.3, 7507.4, 7523.3, 7540.6, 7557.4, 7574.1, 7590.6, 7607.8, 7623.4, 7640.5, 7656.5, 7673.2, 7690.2, 7706.9, 7724.2, 7743.8, 7759.7, 7773.7, 7791.1, 7807.1, 7823.6, 7841.3, 7856.6, 7872.9, 7889.9, 7906.2, 7922.3, 7940.2, 7956.1, 7973.1, 7990.7, 8007.9, 8024.5, 8041.1, 8057.5, 8075.2, 8090.8, 8108.3, 8125, 8141.6, 8157.5, 8175, 8191.7, 8208.6, 8224.5, 8242.1, 8258, 8274.9, 8291.2, 8309.3, 8324.9, 8341.3]","[3.7, 1.2, 16.7, 13.6, 12.6, 16.3, 17.2, 16.3, 16.9, 16.9, 17.5, 16.4, 19, 15, 15.8, 16.8, 16.6, 16.4, 16.7, 16.9, 17.1, 16.2, 17, 16.6, 16.4, 16.6, 16.8, 17.7, 17, 16, 16.7, 16.7, 17.8, 15.9, 17.1, 16.1, 16.6, 17.4, 15.6, 17.3, 16.3, 16.1, 16.8, 17.5, 16.5, 17.2, 17.8, 16.2, 16.6, 15.7, 16.7, 17.7, 16.2, 17.5, 16.8, 16.6, 15.9, 16.6, 17.1, 15.9, 16.6, 17.3, 16.5, 16.7, 17.2, 16.4, 15.4, 17.4, 16.4, 16.5, 16.9, 16.1, 18.4, 16.8, 15.9, 16.9, 17.4, 19, 16.5, 17.2, 17.3, 16.9, 16.6, 15.6, 17.7, 16.6, 16.6, 16.5, 17.3, 16.7, 16.5, 16.3, 16.8, 11.8, 16.6, 17, 16.9, 17.3, 16.8, 16.4, 16.2, 16.9, 16.4, 17.2, 17, 16.2, 16.7, 16.9, 16.2, 16.5, 16.8, 16.6, 16.8, 16.6, 17.3, 16.4, 16.8, 15.5, 17.2, 17.3, 16.7, 15.8, 18.6, 15.6, 16.1, 16.5, 17.1, 15.4, 17.8, 18.2, 14.9, 17, 16.2, 16.7, 17.1, 16.3, 16.9, 16.9, 16.9, 16, 17.2, 16.2, 17, 16.9, 16.7, 16.6, 17.2, 17, 16.5, 16.4, 17, 16.3, 15.8, 16.6, 17.4, 17.3, 17.1, 16.3, 16.3, 16.8, 16, 17.4, 17, 16.4, 16.6, 16.6, 17.3, 16.4, 16.3, 16.3, 17.5, 16.4, 17.5, 16.2, 16.3, 17.3, 16.2, 16.5, 16.6, 16.3, 17.9, 16.1, 17.4, 15.9, 16.4, 17.7, 15.9, 16.7, 17.3, 16.4, 16.1, 17.4, 16.5, 16.2, 17.3, 16.4, 16.6, 17.3, 15.6, 17.1, 16.7, 16.7, 16.4, 16.7, 17.1, 16.8, 16.9, 15.9, 16.9, 16.7, 16.4, 16.9, 16.7, 16.9, 16.6, 16.1, 17, 16.9, 17.4, 16, 16.4, 16.7, 15.7, 16.8, 16.5, 17.6, 17, 15.7, 16.4, 16.5, 16.9, 17.7, 15.4, 16.6, 16.9, 15.9, 17.8, 17, 16.1, 17.2, 16.5, 15.9, 17.3, 16.5, 17.6, 17.5, 16.3, 17, 17.1, 16.1, 15.9, 17.3, 16.8, 16.7, 16.5, 17.2, 15.6, 17.1, 16, 16.7, 17, 16.7, 17.3, 19.6, 15.9, 14, 17.4, 16, 16.5, 17.7, 15.3, 16.3, 17, 16.3, 16.1, 17.9, 15.9, 17, 17.6, 17.2, 16.6, 16.6, 16.4, 17.7, 15.6, 17.5, 16.7, 16.6, 15.9, 17.5, 16.7, 16.9, 15.9, 17.6, 15.9, 16.9, 16.3, 18.1, 15.6, 16.4]",60.0,60.0,60.0,4988.2,[],,,,,,,,,,,,,,,,,,,,,,,,,HRV,HRV_0291,2022-11-30 21:05:04
,wl-html-keyboard-response,2,28674,0.0-2.0-0.0,0.0,3.0,,,,,,,,18691.900000002235,0.0,0,,,,,,,,,,,,,,,,,,,,,,HRV,HRV_0291,2022-11-30 21:05:04
,wl-rdm,3,35896,0.0-3.0-0.0,0.0,4.0,,,,,,,[],,,,0.0,0.0,87.9,0.0,u,0.0,True,1650.1000000014901,99.0,60.0,40.0,False,,3000.0,[],"[640, 360]",ColorTask_Demo,,,,,HRV,HRV_0291,2022-11-30 21:05:04
,wl-rdm,4,40668,0.0-3.0-1.0,0.0,5.0,,,,,,,[],,,,0.0,0.0,87.9,1.0,i,1.0,True,709.0999999977648,43.0,60.0,40.0,False,,2000.0,[],"[640, 360]",ColorTask_Demo,,,,,HRV,HRV_0291,2022-11-30 21:05:04
,wl-html-keyboard-response,5,46865,0.0-3.0-2.0,0.0,6.0,,,,,,,,4191.199999999255,0.0,1,,,,,,,,,,,,,,,,,,,,,,HRV,HRV_0291,2022-11-30 21:05:04
,wl-html-keyboard-response,6,56041,0.0-4.0-0.0,0.0,7.0,,,,,,,,7169.199999999255,0.0,0,,,,,,,,,,,,,,,,,,,,,,HRV,HRV_0291,2022-11-30 21:05:04
,wl-html-keyboard-response,7,71577,0.0-5.0-0.0,0.0,8.0,,,,,,,,13528.800000000745,0.0,0,,,,,,,,,,,,,,,,,,,,,,HRV,HRV_0291,2022-11-30 21:05:04
,wl-rdm,8,74151,0.0-6.0-0.0,0.0,9.0,,,,,,,[],,,,,,73.6,1.0,i,1.0,True,1154.5000000037253,70.0,60.0,40.0,False,,317.70990446950884,[],"[640, 360]",ColorTask,1.0,1.0,,,HRV,HRV_0291,2022-11-30 21:05:04
,wl-rdm,9,76603,0.0-6.1-0.1,0.0,10.0,,,,,,,[],,,,,,87.9,0.0,u,0.0,True,1134.2999999970198,69.0,60.0,40.0,False,,245.8385707925357,[],"[640, 360]",ColorTask,2.0,2.0,,,HRV,HRV_0291,2022-11-30 21:05:04
,wl-rdm,10,79957,0.0-6.2-0.2,0.0,11.0,,,,,,,[],,,,,,53.2,1.0,u,0.0,False,2071.300000000745,125.0,60.0,40.0,False,,207.11438055835586,[],"[640, 360]",ColorTask,1.0,3.0,,,HRV,HRV_0291,2022-11-30 21:05:04
,wl-rdm,11,82309,0.0-6.3-0.3,0.0,12.0,,,,,,,[],,,,,,73.6,1.0,i,1.0,True,930.0999999977648,56.0,60.0,40.0,False,,337.1197027344941,[],"[640, 360]",ColorTask,2.0,4.0,,,HRV,HRV_0291,2022-11-30 21:05:04
,wl-rdm,12,84395,0.0-6.4-0.4,0.0,13.0,,,,,,,[],,,,,,87.9,0.0,u,0.0,True,677.3999999985099,41.0,60.0,40.0,False,,348.5743438891297,[],"[640, 360]",ColorTask,3.0,5.0,,,HRV,HRV_0291,2022-11-30 21:05:04
,wl-rdm,13,88748,0.0-6.5-0.5,0.0,13.0,,,,,,,[],,,,,,50.0,0.0,,,,,179.0,60.0,40.0,True,RT_timeout ,273.62954865764624,[],"[640, 360]",ColorTask,2.0,6.0,,,HRV,HRV_0291,2022-11-30 21:05:04
,wl-rdm,14,92019,0.0-6.6-0.6,0.0,14.0,,,,,,,[],,,,,,56.4,0.0,u,0.0,True,1819.8999999985099,110.0,60.0,40.0,False,,381.1565027802094,[],"[640, 360]",ColorTask,3.0,7.0,,,HRV,HRV_0291,2022-11-30 21:05:04
,wl-rdm,15,94906,0.0-6.7-0.7,0.0,15.0,,,,,,,[],,,,,,50.0,0.0,u,0.0,True,1581.699999999255,95.0,60.0,40.0,False,,241.28452081642993,[],"[640, 360]",ColorTask,4.0,8.0,,,HRV,HRV_0291,2022-11-30 21:05:04
,wl-rdm,16,97974,0.0-6.8-0.8,0.0,16.0,,,,,,,[],,,,,,56.4,0.0,u,0.0,True,1661.1000000014901,100.0,60.0,40.0,False,,344.1431452325234,[],"[640, 360]",ColorTask,5.0,9.0,,,HRV,HRV_0291,2022-11-30 21:05:04
,wl-rdm,17,100394,0.0-6.9-0.9,0.0,17.0,,,,,,,[],,,,,,53.2,0.0,u,0.0,True,976.8999999985099,59.0,60.0,40.0,False,,368.04122979138293,[],"[640, 360]",ColorTask,6.0,10.0,,,HRV,HRV_0291,2022-11-30 21:05:04
,wl-rdm,18,103096,0.0-6.10-0.10,0.0,18.0,,,,,,,[],,,,,,50.0,1.0,u,0.0,False,1375.5,83.0,60.0,40.0,False,,263.8308032843834,[],"[640, 360]",ColorTask,5.0,11.0,,,HRV,HRV_0291,2022-11-30 21:05:04
,wl-rdm,19,105399,0.0-6.11-0.11,0.0,19.0,,,,,,,[],,,,,,73.6,1.0,i,1.0,True,1005.6999999992549,61.0,60.0,40.0,False,,232.10439496170275,[],"[640, 360]",ColorTask,6.0,12.0,,,HRV,HRV_0291,2022-11-30 21:05:04
,wl-rdm,20,107718,0.0-6.12-0.12,0.0,20.0,,,,,,,[],,,,,,53.2,1.0,i,1.0,True,1007.5999999977648,61.0,60.0,40.0,False,,248.3117519590516,[],"[640, 360]",ColorTask,7.0,13.0,,,HRV,HRV_0291,2022-11-30 21:05:04
,wl-rdm,21,109771,0.0-6.13-0.13,0.0,21.0,,,,,,,[],,,,,,73.6,1.0,i,1.0,True,733.6000000014901,45.0,60.0,40.0,False,,224.66551151046275,[],"[640, 360]",ColorTask,8.0,14.0,,,HRV,HRV_0291,2022-11-30 21:05:04
,wl-rdm,22,112672,0.0-6.14-0.14,0.0,22.0,,,,,,,[],,,,,,56.4,1.0,i,1.0,True,1468.5000000037253,88.0,60.0,40.0,False,,360.1241085150281,[],"[640, 360]",ColorTask,9.0,15.0,,,HRV,HRV_0291,2022-11-30 21:05:04
,wl-rdm,23,114892,0.0-6.15-0.15,0.0,23.0,,,,,,,[],,,,,,62.5,0.0,u,0.0,True,937.6000000014901,57.0,60.0,40.0,False,,203.2431466916375,[],"[640, 360]",ColorTask,10.0,16.0,,,HRV,HRV_0291,2022-11-30 21:05:04
,wl-rdm,24,117177,0.0-6.16-0.16,0.0,24.0,,,,,,,[],,,,,,62.5,0.0,u,0.0,True,953.6999999992549,58.0,60.0,40.0,False,,258.47988382546646,[],"[640, 360]",ColorTask,11.0,17.0,,,HRV,HRV_0291,2022-11-30 21:05:04
,wl-rdm,25,119479,0.0-6.17-0.17,0.0,25.0,,,,,,,[],,,,,,73.6,1.0,i,1.0,True,871.6000000014901,53.0,60.0,40.0,False,,356.0715235675968,[],"[640, 360]",ColorTask,12.0,18.0,,,HRV,HRV_0291,2022-11-30 21:05:04
,wl-rdm,26,122147,0.0-6.18-0.18,0.0,26.0,,,,,,,[],,,,,,50.0,1.0,u,0.0,False,1369.0999999977648,83.0,60.0,40.0,False,,225.12505136376,[],"[640, 360]",ColorTask,11.0,19.0,,,HRV,HRV_0291,2022-11-30 21:05:04
,wl-rdm,27,124352,0.0-6.19-0.19,0.0,27.0,,,,,,,[],,,,,,56.4,1.0,i,1.0,True,922.3999999985099,56.0,60.0,40.0,False,,205.80624553068913,[],"[640, 360]",ColorTask,12.0,20.0,,,HRV,HRV_0291,2022-11-30 21:05:04
,wl-rdm,28,127169,0.0-6.20-0.20,0.0,28.0,,,,,,,[],,,,,,62.5,0.0,u,0.0,True,1539.9000000022352,93.0,60.0,40.0,False,,211.42613966651905,[],"[640, 360]",ColorTask,13.0,21.0,,,HRV,HRV_0291,2022-11-30 21:05:04
,wl-rdm,29,129707,0.0-6.21-0.21,0.0,29.0,,,,,,,[],,,,,,56.4,1.0,i,1.0,True,1254.1000000014901,76.0,60.0,40.0,False,,204.32550813627319,[],"[640, 360]",ColorTask,14.0,22.0,,,HRV,HRV_0291,2022-11-30 21:05:04
,wl-rdm,30,133209,0.0-6.22-0.22,0.0,30.0,,,,,,,[],,,,,,56.4,1.0,i,1.0,True,2160.599999997765,130.0,60.0,40.0,False,,272.9946883991024,[],"[640, 360]",ColorTask,15.0,23.0,,,HRV,HRV_0291,2022-11-30 21:05:04
,wl-rdm,31,135295,0.0-6.23-0.23,0.0,31.0,,,,,,,[],,,,,,73.6,1.0,i,1.0,True,796.6000000014901,48.0,60.0,40.0,False,,200.6134240220957,[],"[640, 360]",ColorTask,16.0,24.0,,,HRV,HRV_0291,2022-11-30 21:05:04
,wl-rdm,32,137463,0.0-6.24-0.24,0.0,32.0,,,,,,,[],,,,,,62.5,1.0,i,1.0,True,714.6999999992549,43.0,60.0,40.0,False,,397.3618833105485,[],"[640, 360]",ColorTask,17.0,25.0,,,HRV,HRV_0291,2022-11-30 21:05:04
,wl-rdm,33,140733,0.0-6.25-0.25,0.0,33.0,,,,,,,[],,,,,,50.0,0.0,i,1.0,False,1815.0,109.0,60.0,40.0,False,,370.65515657248386,[],"[640, 360]",ColorTask,16.0,26.0,,,HRV,HRV_0291,2022-11-30 21:05:04
,wl-rdm,34,143570,0.0-6.26-0.26,0.0,34.0,,,,,,,[],,,,,,62.5,0.0,u,0.0,True,1369.4000000022352,83.0,60.0,40.0,False,,394.3818107476624,[],"[640, 360]",ColorTask,17.0,27.0,,,HRV,HRV_0291,2022-11-30 21:05:04
,wl-rdm,35,146955,0.0-6.27-0.27,0.0,35.0,,,,,,,[],,,,,,56.4,1.0,u,0.0,False,2007.0,121.0,60.0,40.0,False,,299.08740786743704,[],"[640, 360]",ColorTask,16.0,28.0,,,HRV,HRV_0291,2022-11-30 21:05:04
,wl-rdm,36,149357,0.0-6.28-0.28,0.0,36.0,,,,,,,[],,,,,,62.5,0.0,u,0.0,True,922.5999999977648,56.0,60.0,40.0,False,,391.1069193135587,[],"[640, 360]",ColorTask,17.0,29.0,,,HRV,HRV_0291,2022-11-30 21:05:04
,wl-rdm,37,151995,0.0-6.29-0.29,0.0,37.0,,,,,,,[],,,,,,50.0,0.0,i,1.0,False,1220.3999999985099,74.0,60.0,40.0,False,,346.8266261097085,[],"[640, 360]",ColorTask,16.0,30.0,,,HRV,HRV_0291,2022-11-30 21:05:04
,wl-rdm,38,154129,0.0-6.30-0.30,0.0,38.0,,,,,,,[],,,,,,87.9,1.0,i,1.0,True,685.7999999970198,42.0,60.0,40.0,False,,364.86952987028536,[],"[640, 360]",ColorTask,17.0,31.0,,,HRV,HRV_0291,2022-11-30 21:05:04
,wl-rdm,39,156265,0.0-6.31-0.31,0.0,39.0,,,,,,,[],,,,,,53.2,1.0,i,1.0,True,853.4000000022352,52.0,60.0,40.0,False,,206.50652494047253,[],"[640, 360]",ColorTask,18.0,32.0,,,HRV,HRV_0291,2022-11-30 21:05:04
,wl-rdm,40,158417,0.0-6.32-0.32,0.0,40.0,,,,,,,[],,,,,,87.9,0.0,u,0.0,True,752.0,45.0,60.0,40.0,False,,323.06619671599185,[],"[640, 360]",ColorTask,19.0,33.0,,,HRV,HRV_0291,2022-11-30 21:05:04
,wl-rdm,41,161486,0.0-6.33-0.33,0.0,41.0,,,,,,,[],,,,,,50.0,0.0,i,1.0,False,1603.9000000022352,97.0,60.0,40.0,False,,397.6865471065244,[],"[640, 360]",ColorTask,18.0,34.0,,,HRV,HRV_0291,2022-11-30 21:05:04
,wl-rdm,42,163806,0.0-6.34-0.34,0.0,42.0,,,,,,,[],,,,,,73.6,0.0,u,0.0,True,895.4000000022352,54.0,60.0,40.0,False,,360.3397668958155,[],"[640, 360]",ColorTask,19.0,35.0,,,HRV,HRV_0291,2022-11-30 21:05:04
,wl-rdm,43,166126,0.0-6.35-0.35,0.0,43.0,,,,,,,[],,,,,,87.9,0.0,u,0.0,True,868.3999999985099,53.0,60.0,40.0,False,,378.9818872924882,[],"[640, 360]",ColorTask,20.0,36.0,,,HRV,HRV_0291,2022-11-30 21:05:04
,wl-rdm,44,169729,0.0-6.36-0.36,0.0,44.0,,,,,,,[],,,,,,53.2,0.0,u,0.0,True,2314.89999999851,139.0,60.0,40.0,False,,226.3862271285925,[],"[640, 360]",ColorTask,21.0,37.0,,,HRV,HRV_0291,2022-11-30 21:05:04
,wl-rdm,45,173499,0.0-6.37-0.37,0.0,45.0,,,,,,,[],,,,,,56.4,0.0,i,1.0,False,2433.89999999851,146.0,60.0,40.0,False,,282.027308389707,[],"[640, 360]",ColorTask,20.0,38.0,,,HRV,HRV_0291,2022-11-30 21:05:04
,wl-rdm,46,176903,0.0-6.38-0.38,0.0,46.0,,,,,,,[],,,,,,56.4,0.0,i,1.0,False,2115.60000000149,127.0,60.0,40.0,False,,228.91241091550154,[],"[640, 360]",ColorTask,19.0,39.0,,,HRV,HRV_0291,2022-11-30 21:05:04
,wl-rdm,47,178905,0.0-6.39-0.39,0.0,47.0,,,,,,,[],,,,,,87.9,1.0,i,1.0,True,704.3999999947846,43.0,60.0,40.0,False,,231.0583846449054,[],"[640, 360]",ColorTask,20.0,40.0,,,HRV,HRV_0291,2022-11-30 21:05:04
,wl-rdm,48,181139,0.0-6.40-0.40,0.0,48.0,,,,,,,[],,,,,,73.6,0.0,u,0.0,True,839.6999999992549,51.0,60.0,40.0,False,,313.0409482247627,[],"[640, 360]",ColorTask,21.0,41.0,,,HRV,HRV_0291,2022-11-30 21:05:04
,wl-rdm,49,183225,0.0-6.41-0.41,0.0,49.0,,,,,,,[],,,,,,87.9,0.0,u,0.0,True,657.2000000029802,40.0,60.0,40.0,False,,346.6600413070179,[],"[640, 360]",ColorTask,22.0,42.0,,,HRV,HRV_0291,2022-11-30 21:05:04
,wl-rdm,50,187062,0.0-6.42-0.42,0.0,50.0,,,,,,,[],,,,,,53.2,0.0,i,1.0,False,2566.7000000029802,154.0,60.0,40.0,False,,206.6948640402649,[],"[640, 360]",ColorTask,21.0,43.0,,,HRV,HRV_0291,2022-11-30 21:05:04
,wl-rdm,51,189165,0.0-6.43-0.43,0.0,51.0,,,,,,,[],,,,,,87.9,0.0,u,0.0,True,831.9000000022352,50.0,60.0,40.0,False,,202.91934196794452,[],"[640, 360]",ColorTask,22.0,44.0,,,HRV,HRV_0291,2022-11-30 21:05:04
,wl-rdm,52,191217,0.0-6.44-0.44,0.0,52.0,,,,,,,[],,,,,,87.9,0.0,u,0.0,True,657.6000000014901,40.0,60.0,40.0,False,,324.12359977935523,[],"[640, 360]",ColorTask,23.0,45.0,,,HRV,HRV_0291,2022-11-30 21:05:04
,wl-rdm,53,194036,0.0-6.45-0.45,0.0,53.0,,,,,,,[],,,,,,53.2,0.0,u,0.0,True,1478.6999999955297,89.0,60.0,40.0,False,,281.8011136881513,[],"[640, 360]",ColorTask,24.0,46.0,,,HRV,HRV_0291,2022-11-30 21:05:04
,wl-rdm,54,197472,0.0-6.46-0.46,0.0,54.0,,,,,,,[],,,,,,50.0,1.0,u,0.0,False,2094.4999999962747,126.0,60.0,40.0,False,,276.17593224979703,[],"[640, 360]",ColorTask,23.0,47.0,,,HRV,HRV_0291,2022-11-30 21:05:04
,wl-rdm,55,199559,0.0-6.47-0.47,0.0,55.0,,,,,,,[],,,,,,73.6,1.0,i,1.0,True,676.0000000037253,41.0,60.0,40.0,False,,342.1434042910556,[],"[640, 360]",ColorTask,24.0,48.0,,,HRV,HRV_0291,2022-11-30 21:05:04
,wl-rdm,56,201678,0.0-6.48-0.48,0.0,56.0,,,,,,,[],,,,,,73.6,0.0,u,0.0,True,824.6000000014901,50.0,60.0,40.0,False,,216.23769524604393,[],"[640, 360]",ColorTask,25.0,49.0,,,HRV,HRV_0291,2022-11-30 21:05:04
,wl-rdm,57,205998,0.0-6.49-0.49,0.0,56.0,,,,,,,[],,,,,,56.4,0.0,u,,,3044.300000000745,179.0,60.0,40.0,True,RT_timeout ,250.07861525257027,[],"[640, 360]",ColorTask,24.0,50.0,,,HRV,HRV_0291,2022-11-30 21:05:04
,wl-rdm,58,207950,0.0-6.50-0.50,0.0,57.0,,,,,,,[],,,,,,87.9,0.0,u,0.0,True,660.9000000022352,40.0,60.0,40.0,False,,217.2518802845928,[],"[640, 360]",ColorTask,25.0,51.0,,,HRV,HRV_0291,2022-11-30 21:05:04
,wl-rdm,59,209986,0.0-6.51-0.51,0.0,58.0,,,,,,,[],,,,,,62.5,1.0,i,1.0,True,699.4000000022352,42.0,60.0,40.0,False,,271.92435621828724,[],"[640, 360]",ColorTask,26.0,52.0,,,HRV,HRV_0291,2022-11-30 21:05:04
,wl-rdm,60,213423,0.0-6.52-0.52,0.0,59.0,,,,,,,[],,,,,,50.0,0.0,i,1.0,False,2179.89999999851,131.0,60.0,40.0,False,,204.2435035635958,[],"[640, 360]",ColorTask,25.0,53.0,,,HRV,HRV_0291,2022-11-30 21:05:04
,wl-rdm,61,215925,0.0-6.53-0.53,0.0,60.0,,,,,,,[],,,,,,62.5,1.0,i,1.0,True,1085.699999999255,66.0,60.0,40.0,False,,319.9458315433223,[],"[640, 360]",ColorTask,26.0,54.0,,,HRV,HRV_0291,2022-11-30 21:05:04
,wl-rdm,62,218261,0.0-6.54-0.54,0.0,61.0,,,,,,,[],,,,,,56.4,0.0,u,0.0,True,912.0000000037253,55.0,60.0,40.0,False,,353.8104404240798,[],"[640, 360]",ColorTask,27.0,55.0,,,HRV,HRV_0291,2022-11-30 21:05:04
,wl-rdm,63,221281,0.0-6.55-0.55,0.0,62.0,,,,,,,[],,,,,,62.5,1.0,i,1.0,True,1556.199999999255,94.0,60.0,40.0,False,,396.4020692431333,[],"[640, 360]",ColorTask,28.0,56.0,,,HRV,HRV_0291,2022-11-30 21:05:04
,wl-rdm,64,224133,0.0-6.56-0.56,0.0,63.0,,,,,,,[],,,,,,53.2,0.0,u,0.0,True,1425.0,86.0,60.0,40.0,False,,363.52161658587465,[],"[640, 360]",ColorTask,29.0,57.0,,,HRV,HRV_0291,2022-11-30 21:05:04
,wl-rdm,65,226201,0.0-6.57-0.57,0.0,64.0,,,,,,,[],,,,,,87.9,1.0,i,1.0,True,688.7000000029802,42.0,60.0,40.0,False,,312.45881252737354,[],"[640, 360]",ColorTask,30.0,58.0,,,HRV,HRV_0291,2022-11-30 21:05:04
,wl-rdm,66,229822,0.0-6.58-0.58,0.0,65.0,,,,,,,[],,,,,,62.5,1.0,i,1.0,True,2276.300000000745,137.0,60.0,40.0,False,,253.64244268503006,[],"[640, 360]",ColorTask,31.0,59.0,,,HRV,HRV_0291,2022-11-30 21:05:04
,wl-rdm,67,233292,0.0-6.59-0.59,0.0,66.0,,,,,,,[],,,,,,53.2,0.0,u,0.0,True,2171.39999999851,131.0,60.0,40.0,False,,219.9137487459005,[],"[640, 360]",ColorTask,32.0,60.0,,,HRV,HRV_0291,2022-11-30 21:05:04
,wl-rdm,68,235895,0.0-6.60-0.60,0.0,67.0,,,,,,,[],,,,,,56.4,0.0,u,0.0,True,1258.7999999970198,76.0,60.0,40.0,False,,271.19837646112296,[],"[640, 360]",ColorTask,33.0,61.0,,,HRV,HRV_0291,2022-11-30 21:05:04
,wl-rdm,69,238864,0.0-6.61-0.61,0.0,68.0,,,,,,,[],,,,,,62.5,1.0,i,1.0,True,1689.699999999255,102.0,60.0,40.0,False,,215.08713713553018,[],"[640, 360]",ColorTask,34.0,62.0,,,HRV,HRV_0291,2022-11-30 21:05:04
,wl-rdm,70,241735,0.0-6.62-0.62,0.0,69.0,,,,,,,[],,,,,,53.2,1.0,i,1.0,True,1533.5000000037253,92.0,60.0,40.0,False,,281.4199961900793,[],"[640, 360]",ColorTask,35.0,63.0,,,HRV,HRV_0291,2022-11-30 21:05:04
,wl-rdm,71,243836,0.0-6.63-0.63,0.0,70.0,,,,,,,[],,,,,,87.9,1.0,i,1.0,True,756.3000000007451,46.0,60.0,40.0,False,,264.9799680977839,[],"[640, 360]",ColorTask,36.0,64.0,,,HRV,HRV_0291,2022-11-30 21:05:04
,wl-rdm,72,245955,0.0-6.64-0.64,0.0,71.0,,,,,,,[],,,,,,87.9,1.0,i,1.0,True,658.6999999992549,40.0,60.0,40.0,False,,389.2269246249434,[],"[640, 360]",ColorTask,37.0,65.0,,,HRV,HRV_0291,2022-11-30 21:05:04
,wl-rdm,73,248090,0.0-6.65-0.65,0.0,72.0,,,,,,,[],,,,,,87.9,1.0,i,1.0,True,668.6999999992549,41.0,60.0,40.0,False,,391.5402701977147,[],"[640, 360]",ColorTask,38.0,66.0,,,HRV,HRV_0291,2022-11-30 21:05:04
,wl-rdm,74,250076,0.0-6.66-0.66,0.0,73.0,,,,,,,[],,,,,,87.9,1.0,i,1.0,True,732.0999999977648,44.0,60.0,40.0,False,,204.9710622985304,[],"[640, 360]",ColorTask,39.0,67.0,,,HRV,HRV_0291,2022-11-30 21:05:04
,wl-rdm,75,252011,0.0-6.67-0.67,0.0,74.0,,,,,,,[],,,,,,87.9,0.0,u,0.0,True,631.5,38.0,60.0,40.0,False,,249.9247972116579,[],"[640, 360]",ColorTask,40.0,68.0,,,HRV,HRV_0291,2022-11-30 21:05:04
,wl-rdm,76,253967,0.0-6.68-0.68,0.0,75.0,,,,,,,[],,,,,,73.6,1.0,i,1.0,True,639.7999999970198,39.0,60.0,40.0,False,,248.05476355439646,[],"[640, 360]",ColorTask,41.0,69.0,,,HRV,HRV_0291,2022-11-30 21:05:04
,wl-rdm,77,256537,0.0-6.69-0.69,0.0,76.0,,,,,,,[],,,,,,50.0,1.0,i,1.0,True,1167.300000000745,70.0,60.0,40.0,False,,345.8490971720367,[],"[640, 360]",ColorTask,42.0,70.0,,,HRV,HRV_0291,2022-11-30 21:05:04
,wl-rdm,78,258889,0.0-6.70-0.70,0.0,77.0,,,,,,,[],,,,,,56.4,1.0,i,1.0,True,1022.7000000029802,62.0,60.0,40.0,False,,261.6361426644436,[],"[640, 360]",ColorTask,43.0,71.0,,,HRV,HRV_0291,2022-11-30 21:05:04
,wl-rdm,79,261697,0.0-6.71-0.71,0.0,78.0,,,,,,,[],,,,,,53.2,0.0,i,1.0,False,1519.8999999985099,91.0,60.0,40.0,False,,230.74916052956928,[],"[640, 360]",ColorTask,42.0,72.0,,,HRV,HRV_0291,2022-11-30 21:05:04
,wl-rdm,80,264435,0.0-6.72-0.72,0.0,79.0,,,,,,,[],,,,,,50.0,1.0,u,0.0,False,1417.3000000044703,85.0,60.0,40.0,False,,261.9815076243881,[],"[640, 360]",ColorTask,41.0,73.0,,,HRV,HRV_0291,2022-11-30 21:05:04
,wl-rdm,81,266423,0.0-6.73-0.73,0.0,80.0,,,,,,,[],,,,,,73.6,1.0,i,1.0,True,697.4999999962747,42.0,60.0,40.0,False,,224.1537566345809,[],"[640, 360]",ColorTask,42.0,74.0,,,HRV,HRV_0291,2022-11-30 21:05:04
,wl-rdm,82,268927,0.0-6.74-0.74,0.0,81.0,,,,,,,[],,,,,,50.0,1.0,u,0.0,False,1227.1000000014901,74.0,60.0,40.0,False,,203.16023205030422,[],"[640, 360]",ColorTask,41.0,75.0,,,HRV,HRV_0291,2022-11-30 21:05:04
,wl-rdm,83,270846,0.0-6.75-0.75,0.0,82.0,,,,,,,[],,,,,,73.6,0.0,u,0.0,True,628.0,38.0,60.0,40.0,False,,230.2088062489699,[],"[640, 360]",ColorTask,42.0,76.0,,,HRV,HRV_0291,2022-11-30 21:05:04
,wl-rdm,84,272932,0.0-6.76-0.76,0.0,83.0,,,,,,,[],,,,,,87.9,1.0,i,1.0,True,723.0999999977648,44.0,60.0,40.0,False,,277.85844070943205,[],"[640, 360]",ColorTask,43.0,77.0,,,HRV,HRV_0291,2022-11-30 21:05:04
,wl-rdm,85,275133,0.0-6.77-0.77,0.0,84.0,,,,,,,[],,,,,,56.4,0.0,u,0.0,True,897.0999999977648,54.0,60.0,40.0,False,,245.6922477531479,[],"[640, 360]",ColorTask,44.0,78.0,,,HRV,HRV_0291,2022-11-30 21:05:04
,wl-rdm,86,277268,0.0-6.78-0.78,0.0,85.0,,,,,,,[],,,,,,73.6,0.0,u,0.0,True,736.0999999977648,44.0,60.0,40.0,False,,318.83571555279434,[],"[640, 360]",ColorTask,45.0,79.0,,,HRV,HRV_0291,2022-11-30 21:05:04
,wl-rdm,87,279370,0.0-6.79-0.79,0.0,86.0,,,,,,,[],,,,,,73.6,0.0,u,0.0,True,805.1000000014901,49.0,60.0,40.0,False,,230.1848826460468,[],"[640, 360]",ColorTask,46.0,80.0,,,HRV,HRV_0291,2022-11-30 21:05:04
,wl-rdm,88,282173,0.0-6.80-0.80,0.0,87.0,,,,,,,[],,,,,,50.0,0.0,i,1.0,False,1532.300000000745,92.0,60.0,40.0,False,,200.2929047150117,[],"[640, 360]",ColorTask,45.0,81.0,,,HRV,HRV_0291,2022-11-30 21:05:04
,wl-rdm,89,284560,0.0-6.81-0.81,0.0,88.0,,,,,,,[],,,,,,56.4,1.0,i,1.0,True,1098.8000000044703,66.0,60.0,40.0,False,,231.57108392746517,[],"[640, 360]",ColorTask,46.0,82.0,,,HRV,HRV_0291,2022-11-30 21:05:04
,wl-rdm,90,288348,0.0-6.82-0.82,0.0,89.0,,,,,,,[],,,,,,50.0,1.0,i,1.0,True,2340.5,141.0,60.0,40.0,False,,373.92672150983094,[],"[640, 360]",ColorTask,47.0,83.0,,,HRV,HRV_0291,2022-11-30 21:05:04
,wl-rdm,91,290732,0.0-6.83-0.83,0.0,90.0,,,,,,,[],,,,,,62.5,0.0,u,0.0,True,1000.3999999985099,60.0,60.0,40.0,False,,321.6712172310778,[],"[640, 360]",ColorTask,48.0,84.0,,,HRV,HRV_0291,2022-11-30 21:05:04
,wl-rdm,92,292750,0.0-6.84-0.84,0.0,91.0,,,,,,,[],,,,,,73.6,0.0,u,0.0,True,646.2999999970198,39.0,60.0,40.0,False,,299.05312868134325,[],"[640, 360]",ColorTask,49.0,85.0,,,HRV,HRV_0291,2022-11-30 21:05:04
,wl-rdm,93,295254,0.0-6.85-0.85,0.0,92.0,,,,,,,[],,,,,,62.5,1.0,i,1.0,True,1154.0,70.0,60.0,40.0,False,,263.99364237374635,[],"[640, 360]",ColorTask,50.0,86.0,,,HRV,HRV_0291,2022-11-30 21:05:04
,wl-rdm,94,298055,0.0-6.86-0.86,0.0,93.0,,,,,,,[],,,,,,62.5,0.0,u,0.0,True,1503.8999999985099,91.0,60.0,40.0,False,,211.97547053534464,[],"[640, 360]",ColorTask,51.0,87.0,,,HRV,HRV_0291,2022-11-30 21:05:04
,wl-rdm,95,301877,0.0-6.87-0.87,0.0,94.0,,,,,,,[],,,,,,53.2,1.0,i,1.0,True,2447.5,147.0,60.0,40.0,False,,309.76207282441914,[],"[640, 360]",ColorTask,52.0,88.0,,,HRV,HRV_0291,2022-11-30 21:05:04
,wl-rdm,96,304963,0.0-6.88-0.88,0.0,95.0,,,,,,,[],,,,,,62.5,1.0,i,1.0,True,1718.300000000745,104.0,60.0,40.0,False,,280.1320616999934,[],"[640, 360]",ColorTask,53.0,89.0,,,HRV,HRV_0291,2022-11-30 21:05:04
,wl-rdm,97,307532,0.0-6.89-0.89,0.0,96.0,,,,,,,[],,,,,,56.4,0.0,u,0.0,True,1098.4000000022352,66.0,60.0,40.0,False,,394.16812158926393,[],"[640, 360]",ColorTask,54.0,90.0,,,HRV,HRV_0291,2022-11-30 21:05:04
,wl-rdm,98,310068,0.0-6.90-0.90,0.0,97.0,,,,,,,[],,,,,,62.5,1.0,i,1.0,True,1248.0,75.0,60.0,40.0,False,,223.92232859200982,[],"[640, 360]",ColorTask,55.0,91.0,,,HRV,HRV_0291,2022-11-30 21:05:04
,wl-rdm,99,313320,0.0-6.91-0.91,0.0,98.0,,,,,,,[],,,,,,50.0,1.0,u,0.0,False,1947.9000000022352,117.0,60.0,40.0,False,,245.4016599875993,[],"[640, 360]",ColorTask,54.0,92.0,,,HRV,HRV_0291,2022-11-30 21:05:04
,wl-rdm,100,316788,0.0-6.92-0.92,0.0,99.0,,,,,,,[],,,,,,50.0,1.0,i,1.0,True,2063.599999997765,124.0,60.0,40.0,False,,330.9547052108916,[],"[640, 360]",ColorTask,55.0,93.0,,,HRV,HRV_0291,2022-11-30 21:05:04
,wl-rdm,101,320144,0.0-6.93-0.93,0.0,100.0,,,,,,,[],,,,,,50.0,0.0,i,1.0,False,1971.1000000014901,118.0,60.0,40.0,False,,301.8786136741122,[],"[640, 360]",ColorTask,54.0,94.0,,,HRV,HRV_0291,2022-11-30 21:05:04
,wl-rdm,102,322281,0.0-6.94-0.94,0.0,101.0,,,,,,,[],,,,,,87.9,1.0,i,1.0,True,696.0999999977648,42.0,60.0,40.0,False,,378.64106162038445,[],"[640, 360]",ColorTask,55.0,95.0,,,HRV,HRV_0291,2022-11-30 21:05:04
,wl-rdm,103,324450,0.0-6.95-0.95,0.0,102.0,,,,,,,[],,,,,,53.2,1.0,i,1.0,True,846.3000000007451,51.0,60.0,40.0,False,,254.80880393868375,[],"[640, 360]",ColorTask,56.0,96.0,,,HRV,HRV_0291,2022-11-30 21:05:04
,wl-rdm,104,328237,0.0-6.96-0.96,0.0,103.0,,,,,,,[],,,,,,53.2,1.0,i,1.0,True,2339.400000002235,141.0,60.0,40.0,False,,378.9826939187977,[],"[640, 360]",ColorTask,57.0,97.0,,,HRV,HRV_0291,2022-11-30 21:05:04
,wl-rdm,105,331589,0.0-6.97-0.97,0.0,104.0,,,,,,,[],,,,,,50.0,0.0,i,1.0,False,2052.099999997765,123.0,60.0,40.0,False,,245.96280926845043,[],"[640, 360]",ColorTask,56.0,98.0,,,HRV,HRV_0291,2022-11-30 21:05:04
,wl-rdm,106,334857,0.0-6.98-0.98,0.0,105.0,,,,,,,[],,,,,,53.2,1.0,i,1.0,True,1821.8999999947846,110.0,60.0,40.0,False,,370.60279748107564,[],"[640, 360]",ColorTask,57.0,99.0,,,HRV,HRV_0291,2022-11-30 21:05:04
,wl-rdm,107,337460,0.0-6.99-0.99,0.0,106.0,,,,,,,[],,,,,,56.4,0.0,u,0.0,True,1268.800000000745,77.0,60.0,40.0,False,,256.0350584640154,[],"[640, 360]",ColorTask,58.0,100.0,,,HRV,HRV_0291,2022-11-30 21:05:04
,wl-rdm,108,339882,0.0-6.100-0.100,0.0,107.0,,,,,,,[],,,,,,56.4,1.0,i,1.0,True,1092.9000000022352,66.0,60.0,40.0,False,,275.1416447722939,[],"[640, 360]",ColorTask,59.0,101.0,,,HRV,HRV_0291,2022-11-30 21:05:04
,wl-rdm,109,341832,0.0-6.101-0.101,0.0,108.0,,,,,,,[],,,,,,73.6,0.0,u,0.0,True,673.3000000007451,41.0,60.0,40.0,False,,210.2656913944598,[],"[640, 360]",ColorTask,60.0,102.0,,,HRV,HRV_0291,2022-11-30 21:05:04
,wl-rdm,110,344987,0.0-6.102-0.102,0.0,109.0,,,,,,,[],,,,,,56.4,1.0,i,1.0,True,1730.5,104.0,60.0,40.0,False,,337.04940752110565,[],"[640, 360]",ColorTask,61.0,103.0,,,HRV,HRV_0291,2022-11-30 21:05:04
,wl-rdm,111,348390,0.0-6.103-0.103,0.0,110.0,,,,,,,[],,,,,,53.2,0.0,u,0.0,True,2110.7999999970198,127.0,60.0,40.0,False,,229.39244196304642,[],"[640, 360]",ColorTask,62.0,104.0,,,HRV,HRV_0291,2022-11-30 21:05:04
,wl-rdm,112,350625,0.0-6.104-0.104,0.0,111.0,,,,,,,[],,,,,,73.6,0.0,u,0.0,True,897.0,55.0,60.0,40.0,False,,252.94629242308946,[],"[640, 360]",ColorTask,63.0,105.0,,,HRV,HRV_0291,2022-11-30 21:05:04
,wl-rdm,113,353778,0.0-6.105-0.105,0.0,112.0,,,,,,,[],,,,,,53.2,0.0,i,1.0,False,1867.9999999962747,112.0,60.0,40.0,False,,216.9738607063397,[],"[640, 360]",ColorTask,62.0,106.0,,,HRV,HRV_0291,2022-11-30 21:05:04
,wl-rdm,114,356765,0.0-6.106-0.106,0.0,113.0,,,,,,,[],,,,,,62.5,0.0,u,0.0,True,1714.1999999955297,103.0,60.0,40.0,False,,208.32602419668683,[],"[640, 360]",ColorTask,63.0,107.0,,,HRV,HRV_0291,2022-11-30 21:05:04
,wl-rdm,115,359400,0.0-6.107-0.107,0.0,114.0,,,,,,,[],,,,,,53.2,1.0,i,1.0,True,1272.8999999985099,77.0,60.0,40.0,False,,293.8075085148874,[],"[640, 360]",ColorTask,64.0,108.0,,,HRV,HRV_0291,2022-11-30 21:05:04
,wl-rdm,116,362036,0.0-6.108-0.108,0.0,115.0,,,,,,,[],,,,,,62.5,0.0,u,0.0,True,1315.0,79.0,60.0,40.0,False,,265.65732721562995,[],"[640, 360]",ColorTask,65.0,109.0,,,HRV,HRV_0291,2022-11-30 21:05:04
,wl-rdm,117,365557,0.0-6.109-0.109,0.0,116.0,,,,,,,[],,,,,,50.0,0.0,i,1.0,False,2201.6999999955297,132.0,60.0,40.0,False,,260.9785967123484,[],"[640, 360]",ColorTask,64.0,110.0,,,HRV,HRV_0291,2022-11-30 21:05:04
,wl-html-keyboard-response,118,385634,0.0-7.0-0.0,1.0,117.0,,,,,,,,18069.400000002235,1.0,0,,,,,,,,,,,,,,,,,,,,,,HRV,HRV_0291,2022-11-30 21:05:04
,wl-rdm,119,387795,0.0-8.0-0.0,1.0,118.0,,,,,,,[],,,,,,73.6,0.0,u,0.0,True,707.1999999992549,43.0,60.0,40.0,False,,388.21172494517754,[],"[640, 360]",ColorTask,65.0,1.0,,,HRV,HRV_0291,2022-11-30 21:05:04
,wl-rdm,120,389730,0.0-8.1-0.1,1.0,119.0,,,,,,,[],,,,,,87.9,0.0,u,0.0,True,645.1999999992549,39.0,60.0,40.0,False,,222.57546814265532,[],"[640, 360]",ColorTask,66.0,2.0,,,HRV,HRV_0291,2022-11-30 21:05:04
,wl-rdm,121,392367,0.0-8.2-0.2,1.0,120.0,,,,,,,[],,,,,,53.2,1.0,i,1.0,True,1171.7999999970198,71.0,60.0,40.0,False,,390.2914674837192,[],"[640, 360]",ColorTask,67.0,3.0,,,HRV,HRV_0291,2022-11-30 21:05:04
,wl-rdm,122,394619,0.0-8.3-0.3,1.0,121.0,,,,,,,[],,,,,,56.4,0.0,u,0.0,True,963.1999999992549,58.0,60.0,40.0,False,,217.29533086422623,[],"[640, 360]",ColorTask,68.0,4.0,,,HRV,HRV_0291,2022-11-30 21:05:04
,wl-rdm,123,397672,0.0-8.4-0.4,1.0,122.0,,,,,,,[],,,,,,56.4,0.0,u,0.0,True,1670.5,101.0,60.0,40.0,False,,312.14375283076663,[],"[640, 360]",ColorTask,69.0,5.0,,,HRV,HRV_0291,2022-11-30 21:05:04
,wl-rdm,124,400575,0.0-8.5-0.5,1.0,123.0,,,,,,,[],,,,,,50.0,1.0,u,0.0,False,1628.1000000014901,98.0,60.0,40.0,False,,204.59762259587956,[],"[640, 360]",ColorTask,68.0,6.0,,,HRV,HRV_0291,2022-11-30 21:05:04
,wl-rdm,125,403561,0.0-8.6-0.6,1.0,124.0,,,,,,,[],,,,,,53.2,0.0,i,1.0,False,1596.199999999255,96.0,60.0,40.0,False,,327.6345642777393,[],"[640, 360]",ColorTask,67.0,7.0,,,HRV,HRV_0291,2022-11-30 21:05:04
,wl-rdm,126,405629,0.0-8.7-0.7,1.0,125.0,,,,,,,[],,,,,,87.9,0.0,u,0.0,True,693.0,42.0,60.0,40.0,False,,298.96132809118484,[],"[640, 360]",ColorTask,68.0,8.0,,,HRV,HRV_0291,2022-11-30 21:05:04
,wl-rdm,127,407631,0.0-8.8-0.8,1.0,126.0,,,,,,,[],,,,,,73.6,0.0,u,0.0,True,709.8999999985099,43.0,60.0,40.0,False,,226.35548464379232,[],"[640, 360]",ColorTask,69.0,9.0,,,HRV,HRV_0291,2022-11-30 21:05:04
,wl-rdm,128,409584,0.0-8.9-0.9,1.0,127.0,,,,,,,[],,,,,,62.5,1.0,i,1.0,True,609.8000000007451,37.0,60.0,40.0,False,,267.5137556091113,[],"[640, 360]",ColorTask,70.0,10.0,,,HRV,HRV_0291,2022-11-30 21:05:04
,wl-rdm,129,411585,0.0-8.10-0.10,1.0,128.0,,,,,,,[],,,,,,87.9,0.0,u,0.0,True,628.6999999992549,38.0,60.0,40.0,False,,308.5190568839897,[],"[640, 360]",ColorTask,71.0,11.0,,,HRV,HRV_0291,2022-11-30 21:05:04
,wl-rdm,130,413521,0.0-8.11-0.11,1.0,129.0,,,,,,,[],,,,,,87.9,1.0,i,1.0,True,636.1000000014901,39.0,60.0,40.0,False,,231.87930437156453,[],"[640, 360]",ColorTask,72.0,12.0,,,HRV,HRV_0291,2022-11-30 21:05:04
,wl-rdm,131,415607,0.0-8.12-0.12,1.0,130.0,,,,,,,[],,,,,,56.4,1.0,i,1.0,True,717.6999999992549,44.0,60.0,40.0,False,,289.3376142844579,[],"[640, 360]",ColorTask,73.0,13.0,,,HRV,HRV_0291,2022-11-30 21:05:04
,wl-rdm,132,417874,0.0-8.13-0.13,1.0,131.0,,,,,,,[],,,,,,73.6,1.0,i,1.0,True,858.2000000029802,52.0,60.0,40.0,False,,334.9227805897974,[],"[640, 360]",ColorTask,74.0,14.0,,,HRV,HRV_0291,2022-11-30 21:05:04
,wl-rdm,133,420078,0.0-8.14-0.14,1.0,132.0,,,,,,,[],,,,,,62.5,1.0,i,1.0,True,775.3000000007451,47.0,60.0,40.0,False,,358.4140650963575,[],"[640, 360]",ColorTask,75.0,15.0,,,HRV,HRV_0291,2022-11-30 21:05:04
,wl-rdm,134,422396,0.0-8.15-0.15,1.0,133.0,,,,,,,[],,,,,,50.0,0.0,i,1.0,False,852.8999999985099,52.0,60.0,40.0,False,,388.7553073035774,[],"[640, 360]",ColorTask,74.0,16.0,,,HRV,HRV_0291,2022-11-30 21:05:04
,wl-rdm,135,425240,0.0-8.16-0.16,1.0,134.0,,,,,,,[],,,,,,56.4,1.0,u,0.0,False,1412.5,85.0,60.0,40.0,False,,359.621099740358,[],"[640, 360]",ColorTask,73.0,17.0,,,HRV,HRV_0291,2022-11-30 21:05:04
,wl-rdm,136,427834,0.0-8.17-0.17,1.0,135.0,,,,,,,[],,,,,,56.4,0.0,u,0.0,True,1244.800000000745,75.0,60.0,40.0,False,,280.43845348211886,[],"[640, 360]",ColorTask,74.0,18.0,,,HRV,HRV_0291,2022-11-30 21:05:04
,wl-rdm,137,430237,0.0-8.18-0.18,1.0,136.0,,,,,,,[],,,,,,56.4,1.0,i,1.0,True,965.4000000022352,58.0,60.0,40.0,False,,371.7384377678019,[],"[640, 360]",ColorTask,75.0,19.0,,,HRV,HRV_0291,2022-11-30 21:05:04
,wl-rdm,138,432406,0.0-8.19-0.19,1.0,137.0,,,,,,,[],,,,,,56.4,1.0,i,1.0,True,796.7999999970198,48.0,60.0,40.0,False,,308.2150031783145,[],"[640, 360]",ColorTask,76.0,20.0,,,HRV,HRV_0291,2022-11-30 21:05:04
,wl-rdm,139,434809,0.0-8.20-0.20,1.0,138.0,,,,,,,[],,,,,,62.5,0.0,u,0.0,True,1012.4999999962747,61.0,60.0,40.0,False,,316.65584485120917,[],"[640, 360]",ColorTask,77.0,21.0,,,HRV,HRV_0291,2022-11-30 21:05:04
,wl-rdm,140,436911,0.0-8.21-0.21,1.0,139.0,,,,,,,[],,,,,,87.9,0.0,u,0.0,True,662.5,40.0,60.0,40.0,False,,369.6945845364777,[],"[640, 360]",ColorTask,78.0,22.0,,,HRV,HRV_0291,2022-11-30 21:05:04
,wl-rdm,141,439146,0.0-8.22-0.22,1.0,140.0,,,,,,,[],,,,,,73.6,0.0,u,0.0,True,906.3000000007451,55.0,60.0,40.0,False,,262.14162255953664,[],"[640, 360]",ColorTask,79.0,23.0,,,HRV,HRV_0291,2022-11-30 21:05:04
,wl-rdm,142,441265,0.0-8.23-0.23,1.0,141.0,,,,,,,[],,,,,,56.4,0.0,i,1.0,False,751.6999999992549,46.0,60.0,40.0,False,,277.70825965863247,[],"[640, 360]",ColorTask,78.0,24.0,,,HRV,HRV_0291,2022-11-30 21:05:04
,wl-rdm,143,443817,0.0-8.24-0.24,1.0,142.0,,,,,,,[],,,,,,50.0,0.0,u,0.0,True,1211.8999999985099,73.0,60.0,40.0,False,,256.5391407470987,[],"[640, 360]",ColorTask,79.0,25.0,,,HRV,HRV_0291,2022-11-30 21:05:04
,wl-rdm,144,446086,0.0-8.25-0.25,1.0,143.0,,,,,,,[],,,,,,53.2,0.0,u,0.0,True,931.0,56.0,60.0,40.0,False,,283.29715920638284,[],"[640, 360]",ColorTask,80.0,26.0,,,HRV,HRV_0291,2022-11-30 21:05:04
,wl-rdm,145,448470,0.0-8.26-0.26,1.0,144.0,,,,,,,[],,,,,,62.5,0.0,u,0.0,True,1075.199999999255,65.0,60.0,40.0,False,,227.42631388735543,[],"[640, 360]",ColorTask,81.0,27.0,,,HRV,HRV_0291,2022-11-30 21:05:04
,wl-rdm,146,450924,0.0-8.27-0.27,1.0,145.0,,,,,,,[],,,,,,56.4,1.0,i,1.0,True,1022.0,62.0,60.0,40.0,False,,357.4176169856878,[],"[640, 360]",ColorTask,82.0,28.0,,,HRV,HRV_0291,2022-11-30 21:05:04
,wl-rdm,147,452993,0.0-8.28-0.28,1.0,146.0,,,,,,,[],,,,,,62.5,0.0,u,0.0,True,711.4999999962747,43.0,60.0,40.0,False,,298.1749812932116,[],"[640, 360]",ColorTask,83.0,29.0,,,HRV,HRV_0291,2022-11-30 21:05:04
,wl-rdm,148,456129,0.0-8.29-0.29,1.0,147.0,,,,,,,[],,,,,,53.2,0.0,u,0.0,True,1866.1000000014901,112.0,60.0,40.0,False,,213.29453567859278,[],"[640, 360]",ColorTask,84.0,30.0,,,HRV,HRV_0291,2022-11-30 21:05:04
,wl-rdm,149,458115,0.0-8.30-0.30,1.0,148.0,,,,,,,[],,,,,,73.6,1.0,i,1.0,True,697.1000000014901,42.0,60.0,40.0,False,,232.89532929524233,[],"[640, 360]",ColorTask,85.0,31.0,,,HRV,HRV_0291,2022-11-30 21:05:04
,wl-rdm,150,461368,0.0-8.31-0.31,1.0,149.0,,,,,,,[],,,,,,53.2,1.0,i,1.0,True,1921.5,116.0,60.0,40.0,False,,262.88108493090334,[],"[640, 360]",ColorTask,86.0,32.0,,,HRV,HRV_0291,2022-11-30 21:05:04
,wl-rdm,151,464254,0.0-8.32-0.32,1.0,150.0,,,,,,,[],,,,,,62.5,1.0,i,1.0,True,1576.5000000037253,95.0,60.0,40.0,False,,242.6590963913767,[],"[640, 360]",ColorTask,87.0,33.0,,,HRV,HRV_0291,2022-11-30 21:05:04
,wl-rdm,152,466290,0.0-8.33-0.33,1.0,151.0,,,,,,,[],,,,,,73.6,0.0,u,0.0,True,693.3000000007451,42.0,60.0,40.0,False,,268.4707214715621,[],"[640, 360]",ColorTask,88.0,34.0,,,HRV,HRV_0291,2022-11-30 21:05:04
,wl-rdm,153,469293,0.0-8.34-0.34,1.0,152.0,,,,,,,[],,,,,,56.4,1.0,i,1.0,True,1719.8999999985099,104.0,60.0,40.0,False,,207.77289920082166,[],"[640, 360]",ColorTask,89.0,35.0,,,HRV,HRV_0291,2022-11-30 21:05:04
,wl-rdm,154,471878,0.0-8.35-0.35,1.0,153.0,,,,,,,[],,,,,,53.2,1.0,i,1.0,True,1189.0999999977648,72.0,60.0,40.0,False,,331.13444329509855,[],"[640, 360]",ColorTask,90.0,36.0,,,HRV,HRV_0291,2022-11-30 21:05:04
,wl-rdm,155,475149,0.0-8.36-0.36,1.0,154.0,,,,,,,[],,,,,,50.0,1.0,i,1.0,True,1992.6000000014901,120.0,60.0,40.0,False,,207.55706291707176,[],"[640, 360]",ColorTask,91.0,37.0,,,HRV,HRV_0291,2022-11-30 21:05:04
,wl-rdm,156,478753,0.0-8.37-0.37,1.0,155.0,,,,,,,[],,,,,,50.0,1.0,u,0.0,False,2162.5,130.0,60.0,40.0,False,,381.76130933369404,[],"[640, 360]",ColorTask,90.0,38.0,,,HRV,HRV_0291,2022-11-30 21:05:04
,wl-rdm,157,481589,0.0-8.38-0.38,1.0,156.0,,,,,,,[],,,,,,53.2,0.0,u,0.0,True,1500.9000000022352,90.0,60.0,40.0,False,,279.0902799016542,[],"[640, 360]",ColorTask,91.0,39.0,,,HRV,HRV_0291,2022-11-30 21:05:04
,wl-rdm,158,483723,0.0-8.39-0.39,1.0,157.0,,,,,,,[],,,,,,73.6,1.0,i,1.0,True,845.0999999977648,51.0,60.0,40.0,False,,222.92643238159417,[],"[640, 360]",ColorTask,92.0,40.0,,,HRV,HRV_0291,2022-11-30 21:05:04
,wl-rdm,159,486811,0.0-8.40-0.40,1.0,158.0,,,,,,,[],,,,,,62.5,1.0,i,1.0,True,1835.300000000745,110.0,60.0,40.0,False,,213.41957327941032,[],"[640, 360]",ColorTask,93.0,41.0,,,HRV,HRV_0291,2022-11-30 21:05:04
,wl-rdm,160,489312,0.0-8.41-0.41,1.0,159.0,,,,,,,[],,,,,,87.9,0.0,u,0.0,True,1064.699999999255,64.0,60.0,40.0,False,,350.74506043513827,[],"[640, 360]",ColorTask,94.0,42.0,,,HRV,HRV_0291,2022-11-30 21:05:04
,wl-rdm,161,491814,0.0-8.42-0.42,1.0,160.0,,,,,,,[],,,,,,73.6,1.0,i,1.0,True,1110.4000000022352,67.0,60.0,40.0,False,,318.6212481287854,[],"[640, 360]",ColorTask,95.0,43.0,,,HRV,HRV_0291,2022-11-30 21:05:04
,wl-rdm,162,493884,0.0-8.43-0.43,1.0,161.0,,,,,,,[],,,,,,87.9,1.0,i,1.0,True,777.2999999970198,47.0,60.0,40.0,False,,204.45155487724125,[],"[640, 360]",ColorTask,96.0,44.0,,,HRV,HRV_0291,2022-11-30 21:05:04
,wl-rdm,163,497286,0.0-8.44-0.44,1.0,162.0,,,,,,,[],,,,,,56.4,1.0,i,1.0,True,1983.1000000014901,119.0,60.0,40.0,False,,348.36183828113104,[],"[640, 360]",ColorTask,97.0,45.0,,,HRV,HRV_0291,2022-11-30 21:05:04
,wl-rdm,164,500206,0.0-8.45-0.45,1.0,163.0,,,,,,,[],,,,,,56.4,0.0,u,0.0,True,1608.9000000022352,97.0,60.0,40.0,False,,244.8825750092608,[],"[640, 360]",ColorTask,98.0,46.0,,,HRV,HRV_0291,2022-11-30 21:05:04
,wl-rdm,165,503193,0.0-8.46-0.46,1.0,164.0,,,,,,,[],,,,,,50.0,0.0,u,0.0,True,1636.0,98.0,60.0,40.0,False,,283.8872025448653,[],"[640, 360]",ColorTask,99.0,47.0,,,HRV,HRV_0291,2022-11-30 21:05:04
,wl-rdm,166,505177,0.0-8.47-0.47,1.0,165.0,,,,,,,[],,,,,,73.6,0.0,u,0.0,True,702.1999999992549,43.0,60.0,40.0,False,,202.33805959974455,[],"[640, 360]",ColorTask,100.0,48.0,,,HRV,HRV_0291,2022-11-30 21:05:04
,wl-rdm,167,507781,0.0-8.48-0.48,1.0,166.0,,,,,,,[],,,,,,50.0,0.0,i,1.0,False,1269.199999999255,77.0,60.0,40.0,False,,263.85974893156896,[],"[640, 360]",ColorTask,99.0,49.0,,,HRV,HRV_0291,2022-11-30 21:05:04
,wl-rdm,168,510284,0.0-8.49-0.49,1.0,167.0,,,,,,,[],,,,,,62.5,1.0,i,1.0,True,1132.5,68.0,60.0,40.0,False,,289.09588319142927,[],"[640, 360]",ColorTask,100.0,50.0,,,HRV,HRV_0291,2022-11-30 21:05:04
,wl-rdm,169,513920,0.0-8.50-0.50,1.0,168.0,,,,,,,[],,,,,,50.0,0.0,u,0.0,True,2171.60000000149,131.0,60.0,40.0,False,,381.8876227764788,[],"[640, 360]",ColorTask,101.0,51.0,,,HRV,HRV_0291,2022-11-30 21:05:04
,wl-rdm,170,516439,0.0-8.51-0.51,1.0,169.0,,,,,,,[],,,,,,53.2,1.0,i,1.0,True,1203.2000000029802,73.0,60.0,40.0,False,,244.10336926397432,[],"[640, 360]",ColorTask,102.0,52.0,,,HRV,HRV_0291,2022-11-30 21:05:04
,wl-rdm,171,518792,0.0-8.52-0.52,1.0,170.0,,,,,,,[],,,,,,87.9,0.0,u,0.0,True,900.2000000029802,54.0,60.0,40.0,False,,385.11163137397193,[],"[640, 360]",ColorTask,103.0,53.0,,,HRV,HRV_0291,2022-11-30 21:05:04
,wl-rdm,172,521394,0.0-8.53-0.53,1.0,171.0,,,,,,,[],,,,,,62.5,0.0,u,0.0,True,1321.7000000029802,80.0,60.0,40.0,False,,202.01730396875513,[],"[640, 360]",ColorTask,104.0,54.0,,,HRV,HRV_0291,2022-11-30 21:05:04
,wl-rdm,173,523697,0.0-8.54-0.54,1.0,172.0,,,,,,,[],,,,,,62.5,0.0,u,0.0,True,999.1000000014901,60.0,60.0,40.0,False,,243.6168408496791,[],"[640, 360]",ColorTask,105.0,55.0,,,HRV,HRV_0291,2022-11-30 21:05:04
,wl-rdm,174,526066,0.0-8.55-0.55,1.0,173.0,,,,,,,[],,,,,,62.5,0.0,u,0.0,True,1047.4000000022352,63.0,60.0,40.0,False,,244.41424377701793,[],"[640, 360]",ColorTask,106.0,56.0,,,HRV,HRV_0291,2022-11-30 21:05:04
,wl-rdm,175,528652,0.0-8.56-0.56,1.0,174.0,,,,,,,[],,,,,,50.0,1.0,i,1.0,True,1289.9999999962747,78.0,60.0,40.0,False,,220.5613478467313,[],"[640, 360]",ColorTask,107.0,57.0,,,HRV,HRV_0291,2022-11-30 21:05:04
,wl-rdm,176,531071,0.0-8.57-0.57,1.0,175.0,,,,,,,[],,,,,,62.5,1.0,i,1.0,True,1056.5,64.0,60.0,40.0,False,,270.88094405374864,[],"[640, 360]",ColorTask,108.0,58.0,,,HRV,HRV_0291,2022-11-30 21:05:04
,wl-rdm,177,533172,0.0-8.58-0.58,1.0,176.0,,,,,,,[],,,,,,87.9,1.0,i,1.0,True,640.0,39.0,60.0,40.0,False,,372.9898055237958,[],"[640, 360]",ColorTask,109.0,59.0,,,HRV,HRV_0291,2022-11-30 21:05:04
,wl-rdm,178,536190,0.0-8.59-0.59,1.0,177.0,,,,,,,[],,,,,,62.5,1.0,i,1.0,True,1637.5,98.0,60.0,40.0,False,,303.68272755576066,[],"[640, 360]",ColorTask,110.0,60.0,,,HRV,HRV_0291,2022-11-30 21:05:04
,wl-rdm,179,538745,0.0-8.60-0.60,1.0,178.0,,,,,,,[],,,,,,53.2,1.0,i,1.0,True,1148.199999999255,69.0,60.0,40.0,False,,358.5737325195847,[],"[640, 360]",ColorTask,111.0,61.0,,,HRV,HRV_0291,2022-11-30 21:05:04
,wl-rdm,180,540798,0.0-8.61-0.61,1.0,179.0,,,,,,,[],,,,,,73.6,1.0,i,1.0,True,665.8000000007451,40.0,60.0,40.0,False,,333.9050561440105,[],"[640, 360]",ColorTask,112.0,62.0,,,HRV,HRV_0291,2022-11-30 21:05:04
,wl-rdm,181,543366,0.0-8.62-0.62,1.0,180.0,,,,,,,[],,,,,,53.2,0.0,u,0.0,True,1097.9000000059605,66.0,60.0,40.0,False,,396.10211763497864,[],"[640, 360]",ColorTask,113.0,63.0,,,HRV,HRV_0291,2022-11-30 21:05:04
,wl-rdm,182,545502,0.0-8.63-0.63,1.0,181.0,,,,,,,[],,,,,,56.4,0.0,u,0.0,True,768.0,46.0,60.0,40.0,False,,290.596536684082,[],"[640, 360]",ColorTask,114.0,64.0,,,HRV,HRV_0291,2022-11-30 21:05:04
,wl-rdm,183,547621,0.0-8.64-0.64,1.0,182.0,,,,,,,[],,,,,,87.9,1.0,i,1.0,True,764.5999999977648,46.0,60.0,40.0,False,,285.88515349868123,[],"[640, 360]",ColorTask,115.0,65.0,,,HRV,HRV_0291,2022-11-30 21:05:04
,wl-rdm,184,549640,0.0-8.65-0.65,1.0,183.0,,,,,,,[],,,,,,73.6,0.0,u,0.0,True,640.1999999992549,39.0,60.0,40.0,False,,306.9187619009218,[],"[640, 360]",ColorTask,116.0,66.0,,,HRV,HRV_0291,2022-11-30 21:05:04
,wl-rdm,185,552542,0.0-8.66-0.66,1.0,184.0,,,,,,,[],,,,,,62.5,0.0,u,0.0,True,1561.0,94.0,60.0,40.0,False,,263.5525408899514,[],"[640, 360]",ColorTask,117.0,67.0,,,HRV,HRV_0291,2022-11-30 21:05:04
,wl-rdm,186,554528,0.0-8.67-0.67,1.0,185.0,,,,,,,[],,,,,,87.9,0.0,u,0.0,True,644.3000000007451,39.0,60.0,40.0,False,,269.1709813301338,[],"[640, 360]",ColorTask,118.0,68.0,,,HRV,HRV_0291,2022-11-30 21:05:04
,wl-rdm,187,556696,0.0-8.68-0.68,1.0,186.0,,,,,,,[],,,,,,73.6,0.0,u,0.0,True,737.8999999985099,45.0,60.0,40.0,False,,360.5578598364791,[],"[640, 360]",ColorTask,119.0,69.0,,,HRV,HRV_0291,2022-11-30 21:05:04
,wl-rdm,188,558681,0.0-8.69-0.69,1.0,187.0,,,,,,,[],,,,,,87.9,1.0,i,1.0,True,695.4000000022352,42.0,60.0,40.0,False,,229.61325341972264,[],"[640, 360]",ColorTask,120.0,70.0,,,HRV,HRV_0291,2022-11-30 21:05:04
,wl-rdm,189,562051,0.0-8.70-0.70,1.0,188.0,,,,,,,[],,,,,,50.0,0.0,i,1.0,False,2036.6000000014901,123.0,60.0,40.0,False,,242.66744827494898,[],"[640, 360]",ColorTask,119.0,71.0,,,HRV,HRV_0291,2022-11-30 21:05:04
,wl-rdm,190,564269,0.0-8.71-0.71,1.0,189.0,,,,,,,[],,,,,,50.0,1.0,i,1.0,True,906.0,55.0,60.0,40.0,False,,242.8604364054595,[],"[640, 360]",ColorTask,120.0,72.0,,,HRV,HRV_0291,2022-11-30 21:05:04
,wl-rdm,191,566689,0.0-8.72-0.72,1.0,190.0,,,,,,,[],,,,,,73.6,1.0,i,1.0,True,964.1000000014901,58.0,60.0,40.0,False,,386.04053329717055,[],"[640, 360]",ColorTask,121.0,73.0,,,HRV,HRV_0291,2022-11-30 21:05:04
,wl-rdm,192,568875,0.0-8.73-0.73,1.0,191.0,,,,,,,[],,,,,,73.6,0.0,u,0.0,True,723.0999999977648,44.0,60.0,40.0,False,,394.8959969522347,[],"[640, 360]",ColorTask,122.0,74.0,,,HRV,HRV_0291,2022-11-30 21:05:04
,wl-rdm,193,571661,0.0-8.74-0.74,1.0,192.0,,,,,,,[],,,,,,53.2,1.0,i,1.0,True,1501.800000000745,91.0,60.0,40.0,False,,215.86817507351165,[],"[640, 360]",ColorTask,123.0,75.0,,,HRV,HRV_0291,2022-11-30 21:05:04
,wl-rdm,194,574564,0.0-8.75-0.75,1.0,193.0,,,,,,,[],,,,,,50.0,1.0,i,1.0,True,1614.300000000745,97.0,60.0,40.0,False,,215.81455687377664,[],"[640, 360]",ColorTask,124.0,76.0,,,HRV,HRV_0291,2022-11-30 21:05:04
,wl-rdm,195,576733,0.0-8.76-0.76,1.0,194.0,,,,,,,[],,,,,,50.0,1.0,u,0.0,False,705.1000000014901,43.0,60.0,40.0,False,,388.02743679677627,[],"[640, 360]",ColorTask,123.0,77.0,,,HRV,HRV_0291,2022-11-30 21:05:04
,wl-rdm,196,578884,0.0-8.77-0.77,1.0,195.0,,,,,,,[],,,,,,73.6,0.0,u,0.0,True,738.3000000007451,45.0,60.0,40.0,False,,345.25107879100153,[],"[640, 360]",ColorTask,124.0,78.0,,,HRV,HRV_0291,2022-11-30 21:05:04
,wl-rdm,197,581621,0.0-8.78-0.78,1.0,196.0,,,,,,,[],,,,,,53.2,1.0,i,1.0,True,1314.5,79.0,60.0,40.0,False,,364.0414071423263,[],"[640, 360]",ColorTask,125.0,79.0,,,HRV,HRV_0291,2022-11-30 21:05:04
,wl-rdm,198,583974,0.0-8.79-0.79,1.0,197.0,,,,,,,[],,,,,,53.2,0.0,u,0.0,True,968.1999999992549,58.0,60.0,40.0,False,,326.9577915569047,[],"[640, 360]",ColorTask,126.0,80.0,,,HRV,HRV_0291,2022-11-30 21:05:04
,wl-rdm,199,587593,0.0-8.80-0.80,1.0,198.0,,,,,,,[],,,,,,56.4,1.0,i,1.0,True,2291.099999997765,138.0,60.0,40.0,False,,255.1168999160943,[],"[640, 360]",ColorTask,127.0,81.0,,,HRV,HRV_0291,2022-11-30 21:05:04
,wl-rdm,200,590062,0.0-8.81-0.81,1.0,199.0,,,,,,,[],,,,,,73.6,1.0,i,1.0,True,1034.800000000745,62.0,60.0,40.0,False,,352.0132111885238,[],"[640, 360]",ColorTask,128.0,82.0,,,HRV,HRV_0291,2022-11-30 21:05:04
,wl-rdm,201,593299,0.0-8.82-0.82,1.0,200.0,,,,,,,[],,,,,,53.2,1.0,i,1.0,True,1940.2000000029802,117.0,60.0,40.0,False,,210.41524784361337,[],"[640, 360]",ColorTask,129.0,83.0,,,HRV,HRV_0291,2022-11-30 21:05:04
,wl-rdm,202,596084,0.0-8.83-0.83,1.0,201.0,,,,,,,[],,,,,,56.4,0.0,u,0.0,True,1428.300000000745,86.0,60.0,40.0,False,,295.1483488756782,[],"[640, 360]",ColorTask,130.0,84.0,,,HRV,HRV_0291,2022-11-30 21:05:04
,wl-rdm,203,598904,0.0-8.84-0.84,1.0,202.0,,,,,,,[],,,,,,62.5,0.0,u,0.0,True,1517.0999999977648,91.0,60.0,40.0,False,,248.73356210144738,[],"[640, 360]",ColorTask,131.0,85.0,,,HRV,HRV_0291,2022-11-30 21:05:04
,wl-rdm,204,601874,0.0-8.85-0.85,1.0,203.0,,,,,,,[],,,,,,56.4,0.0,u,0.0,True,1676.199999999255,101.0,60.0,40.0,False,,220.06944689091912,[],"[640, 360]",ColorTask,132.0,86.0,,,HRV,HRV_0291,2022-11-30 21:05:04
,wl-rdm,205,605278,0.0-8.86-0.86,1.0,204.0,,,,,,,[],,,,,,50.0,1.0,i,1.0,True,2004.8999999985099,121.0,60.0,40.0,False,,335.74987381145513,[],"[640, 360]",ColorTask,133.0,87.0,,,HRV,HRV_0291,2022-11-30 21:05:04
,wl-rdm,206,607812,0.0-8.87-0.87,1.0,205.0,,,,,,,[],,,,,,50.0,0.0,u,0.0,True,1177.0,71.0,60.0,40.0,False,,270.2617505152409,[],"[640, 360]",ColorTask,134.0,88.0,,,HRV,HRV_0291,2022-11-30 21:05:04
,wl-rdm,207,610515,0.0-8.88-0.88,1.0,206.0,,,,,,,[],,,,,,53.2,0.0,u,0.0,True,1285.9999999962747,78.0,60.0,40.0,False,,334.6570865200682,[],"[640, 360]",ColorTask,135.0,89.0,,,HRV,HRV_0291,2022-11-30 21:05:04
,wl-rdm,208,612602,0.0-8.89-0.89,1.0,207.0,,,,,,,[],,,,,,87.9,0.0,u,0.0,True,794.8999999985099,48.0,60.0,40.0,False,,220.59466152729868,[],"[640, 360]",ColorTask,136.0,90.0,,,HRV,HRV_0291,2022-11-30 21:05:04
,wl-rdm,209,614600,0.0-8.90-0.90,1.0,208.0,,,,,,,[],,,,,,87.9,0.0,u,0.0,True,670.1000000014901,41.0,60.0,40.0,False,,232.02814873422025,[],"[640, 360]",ColorTask,137.0,91.0,,,HRV,HRV_0291,2022-11-30 21:05:04
,wl-rdm,210,616769,0.0-8.91-0.91,1.0,209.0,,,,,,,[],,,,,,87.9,1.0,i,1.0,True,760.0,46.0,60.0,40.0,False,,349.04286463733285,[],"[640, 360]",ColorTask,138.0,92.0,,,HRV,HRV_0291,2022-11-30 21:05:04
,wl-rdm,211,619925,0.0-8.92-0.92,1.0,210.0,,,,,,,[],,,,,,62.5,0.0,u,0.0,True,1774.5999999977648,107.0,60.0,40.0,False,,306.5632453604362,[],"[640, 360]",ColorTask,139.0,93.0,,,HRV,HRV_0291,2022-11-30 21:05:04
,wl-rdm,212,623612,0.0-8.93-0.93,1.0,211.0,,,,,,,[],,,,,,50.0,0.0,i,1.0,False,2258.800000000745,136.0,60.0,40.0,False,,349.8934849284647,[],"[640, 360]",ColorTask,138.0,94.0,,,HRV,HRV_0291,2022-11-30 21:05:04
,wl-rdm,213,625614,0.0-8.94-0.94,1.0,212.0,,,,,,,[],,,,,,87.9,1.0,i,1.0,True,724.5,44.0,60.0,40.0,False,,205.14482929057166,[],"[640, 360]",ColorTask,139.0,95.0,,,HRV,HRV_0291,2022-11-30 21:05:04
,wl-rdm,214,629418,0.0-8.95-0.95,1.0,213.0,,,,,,,[],,,,,,56.4,0.0,i,1.0,False,2417.800000000745,145.0,60.0,40.0,False,,328.3441111691203,[],"[640, 360]",ColorTask,138.0,96.0,,,HRV,HRV_0291,2022-11-30 21:05:04
,wl-rdm,215,631704,0.0-8.96-0.96,1.0,214.0,,,,,,,[],,,,,,62.5,1.0,i,1.0,True,988.8999999985099,60.0,60.0,40.0,False,,213.9458670688784,[],"[640, 360]",ColorTask,139.0,97.0,,,HRV,HRV_0291,2022-11-30 21:05:04
,wl-rdm,216,633908,0.0-8.97-0.97,1.0,215.0,,,,,,,[],,,,,,73.6,1.0,i,1.0,True,819.6000000014901,50.0,60.0,40.0,False,,312.4766698956364,[],"[640, 360]",ColorTask,140.0,98.0,,,HRV,HRV_0291,2022-11-30 21:05:04
,wl-rdm,217,636610,0.0-8.98-0.98,1.0,216.0,,,,,,,[],,,,,,62.5,1.0,i,1.0,True,1400.0,85.0,60.0,40.0,False,,220.63671356925835,[],"[640, 360]",ColorTask,141.0,99.0,,,HRV,HRV_0291,2022-11-30 21:05:04
,wl-rdm,218,640160,0.0-8.99-0.99,1.0,217.0,,,,,,,[],,,,,,53.2,0.0,u,0.0,True,2220.800000000745,134.0,60.0,40.0,False,,242.48795972226665,[],"[640, 360]",ColorTask,142.0,100.0,,,HRV,HRV_0291,2022-11-30 21:05:04
,wl-rdm,219,643415,0.0-8.100-0.100,1.0,218.0,,,,,,,[],,,,,,53.2,0.0,i,1.0,False,1970.5999999977648,119.0,60.0,40.0,False,,226.8247122736487,[],"[640, 360]",ColorTask,141.0,101.0,,,HRV,HRV_0291,2022-11-30 21:05:04
,wl-rdm,220,645536,0.0-8.101-0.101,1.0,219.0,,,,,,,[],,,,,,73.6,1.0,i,1.0,True,847.6999999992549,51.0,60.0,40.0,False,,212.6728866742629,[],"[640, 360]",ColorTask,142.0,102.0,,,HRV,HRV_0291,2022-11-30 21:05:04
,wl-rdm,221,648054,0.0-8.102-0.102,1.0,220.0,,,,,,,[],,,,,,53.2,1.0,i,1.0,True,1207.1000000014901,73.0,60.0,40.0,False,,247.72277645832696,[],"[640, 360]",ColorTask,143.0,103.0,,,HRV,HRV_0291,2022-11-30 21:05:04
,wl-rdm,222,651523,0.0-8.103-0.103,1.0,221.0,,,,,,,[],,,,,,50.0,1.0,u,0.0,False,2192.8999999947846,132.0,60.0,40.0,False,,202.27866221697624,[],"[640, 360]",ColorTask,142.0,104.0,,,HRV,HRV_0291,2022-11-30 21:05:04
,wl-rdm,223,653610,0.0-8.104-0.104,1.0,222.0,,,,,,,[],,,,,,87.9,1.0,i,1.0,True,763.0,46.0,60.0,40.0,False,,251.8971584417219,[],"[640, 360]",ColorTask,143.0,105.0,,,HRV,HRV_0291,2022-11-30 21:05:04
,wl-rdm,224,655695,0.0-8.105-0.105,1.0,223.0,,,,,,,[],,,,,,87.9,1.0,i,1.0,True,738.3000000007451,45.0,60.0,40.0,False,,270.53721223191695,[],"[640, 360]",ColorTask,144.0,106.0,,,HRV,HRV_0291,2022-11-30 21:05:04
,wl-rdm,225,659415,0.0-8.106-0.106,1.0,224.0,,,,,,,[],,,,,,56.4,1.0,i,1.0,True,2287.8999999947846,138.0,60.0,40.0,False,,362.79966508741813,[],"[640, 360]",ColorTask,145.0,107.0,,,HRV,HRV_0291,2022-11-30 21:05:04
,wl-rdm,226,663236,0.0-8.107-0.107,1.0,225.0,,,,,,,[],,,,,,50.0,0.0,i,1.0,False,2491.5,150.0,60.0,40.0,False,,249.21709735456238,[],"[640, 360]",ColorTask,144.0,108.0,,,HRV,HRV_0291,2022-11-30 21:05:04
,wl-html-button-response,227,667092,0.0-9.0-0.0,,,,,,,,,,3851.89999999851,,0,,,,,,,,,,,,,,,,,,,,<h3>End of this session. Thank you!</h3><br>,['Close window'],HRV,HRV_0291,2022-11-30 21:05:04
