trialN,stimuli,question,trialStartTime,trialStartTime_UNIX,stimulus1,rt,receivedResponse,rating,trialEndTime,trialDuration,stimulus1Loaded,exp,subjectId,date
0,"[{'imgObject': {}, 'id': 'steak', 'src': '/static/foodstim60/steak.jpg', 'key': 'NaN', 'origWidth': 410, 'origHeight': 410, 'width': 410, 'height': 410, 'widthPercent': 0.8, 'rescaleHeight': True, 'trialN': 0, 'loaded': True, 'loadedTime': 1921, 'positionName': 'CENTER', 'positionCoords': [435, 155]}]",Rate how much you want to eat this food from 0 (least) to 10 (most).,2487.2000000029802,1669840715984,steak,4524.39999999851,True,9.9,7011.60000000149,4524.39999999851,True,HRV,HRV_0291,2022-11-30 20:43:32
1,"[{'imgObject': {}, 'id': 'seaweed', 'src': '/static/foodstim60/seaweed.jpg', 'key': 'NaN', 'origWidth': 410, 'origHeight': 410, 'width': 410, 'height': 410, 'widthPercent': 0.8, 'rescaleHeight': True, 'trialN': 1, 'loaded': True, 'loadedTime': 1984.6000000014901, 'positionName': 'CENTER', 'positionCoords': [435, 155]}]",Rate how much you want to eat this food from 0 (least) to 10 (most).,7018.60000000149,1669840720515,seaweed,5666.0,True,2.93,12684.60000000149,5666.0,True,HRV,HRV_0291,2022-11-30 20:43:32
2,"[{'imgObject': {}, 'id': 'olives', 'src': '/static/foodstim60/olives.jpg', 'key': 'NaN', 'origWidth': 410, 'origHeight': 410, 'width': 410, 'height': 410, 'widthPercent': 0.8, 'rescaleHeight': True, 'trialN': 2, 'loaded': True, 'loadedTime': 1915.5, 'positionName': 'CENTER', 'positionCoords': [435, 155]}]",Rate how much you want to eat this food from 0 (least) to 10 (most).,12687.20000000298,1669840726184,olives,4135.39999999851,True,0.45,16822.60000000149,4135.39999999851,True,HRV,HRV_0291,2022-11-30 20:43:32
3,"[{'imgObject': {}, 'id': 'salmon', 'src': '/static/foodstim60/salmon.jpg', 'key': 'NaN', 'origWidth': 410, 'origHeight': 409, 'width': 410, 'height': 409, 'widthPercent': 0.8, 'rescaleHeight': True, 'trialN': 3, 'loaded': True, 'loadedTime': 1916, 'positionName': 'CENTER', 'positionCoords': [435, 155.5]}]",Rate how much you want to eat this food from 0 (least) to 10 (most).,16825.300000000745,1669840730322,salmon,5943.300000000745,True,5.04,22768.60000000149,5943.300000000745,True,HRV,HRV_0291,2022-11-30 20:43:32
4,"[{'imgObject': {}, 'id': 'cocktailshrimp', 'src': '/static/foodstim60/cocktailshrimp.jpg', 'key': 'NaN', 'origWidth': 410, 'origHeight': 410, 'width': 410, 'height': 410, 'widthPercent': 0.8, 'rescaleHeight': True, 'trialN': 4, 'loaded': True, 'loadedTime': 1917.7000000029802, 'positionName': 'CENTER', 'positionCoords': [435, 155]}]",Rate how much you want to eat this food from 0 (least) to 10 (most).,22770.20000000298,1669840736267,cocktailshrimp,3040.39999999851,True,0.0,25810.60000000149,3040.39999999851,True,HRV,HRV_0291,2022-11-30 20:43:32
5,"[{'imgObject': {}, 'id': 'bagel plain', 'src': '/static/foodstim60/bagel plain.jpg', 'key': 'NaN', 'origWidth': 410, 'origHeight': 410, 'width': 410, 'height': 410, 'widthPercent': 0.8, 'rescaleHeight': True, 'trialN': 5, 'loaded': True, 'loadedTime': 1910.7000000029802, 'positionName': 'CENTER', 'positionCoords': [435, 155]}]",Rate how much you want to eat this food from 0 (least) to 10 (most).,25813.800000000745,1669840739310,bagel plain,6624.800000000745,True,3.7800000000000002,32438.60000000149,6624.800000000745,True,HRV,HRV_0291,2022-11-30 20:43:32
6,"[{'imgObject': {}, 'id': 'yogurt no spoon', 'src': '/static/foodstim60/yogurt no spoon.jpg', 'key': 'NaN', 'origWidth': 411, 'origHeight': 410, 'width': 411, 'height': 410, 'widthPercent': 0.8, 'rescaleHeight': True, 'trialN': 6, 'loaded': True, 'loadedTime': 1981.6000000014901, 'positionName': 'CENTER', 'positionCoords': [434.5, 155]}]",Rate how much you want to eat this food from 0 (least) to 10 (most).,32442.20000000298,1669840745939,yogurt no spoon,6736.39999999851,True,5.1000000000000005,39178.60000000149,6736.39999999851,True,HRV,HRV_0291,2022-11-30 20:43:32
7,"[{'imgObject': {}, 'id': 'orange slices', 'src': '/static/foodstim60/orange slices.jpg', 'key': 'NaN', 'origWidth': 409, 'origHeight': 410, 'width': 409, 'height': 410, 'widthPercent': 0.8, 'rescaleHeight': True, 'trialN': 7, 'loaded': True, 'loadedTime': 1970.5, 'positionName': 'CENTER', 'positionCoords': [435.5, 155]}]",Rate how much you want to eat this food from 0 (least) to 10 (most).,39181.60000000149,1669840752678,orange slices,3512.0,True,3.29,42693.60000000149,3512.0,True,HRV,HRV_0291,2022-11-30 20:43:32
8,"[{'imgObject': {}, 'id': 'blueberries', 'src': '/static/foodstim60/blueberries.jpg', 'key': 'NaN', 'origWidth': 411, 'origHeight': 411, 'width': 411, 'height': 411, 'widthPercent': 0.8, 'rescaleHeight': True, 'trialN': 8, 'loaded': True, 'loadedTime': 1974.1000000014901, 'positionName': 'CENTER', 'positionCoords': [434.5, 154.5]}]",Rate how much you want to eat this food from 0 (least) to 10 (most).,42696.5,1669840756193,blueberries,2510.10000000149,True,1.07,45206.60000000149,2510.10000000149,True,HRV,HRV_0291,2022-11-30 20:43:32
9,"[{'imgObject': {}, 'id': 'cherry tomato', 'src': '/static/foodstim60/cherry tomato.jpg', 'key': 'NaN', 'origWidth': 410, 'origHeight': 410, 'width': 410, 'height': 410, 'widthPercent': 0.8, 'rescaleHeight': True, 'trialN': 9, 'loaded': True, 'loadedTime': 1983, 'positionName': 'CENTER', 'positionCoords': [435, 155]}]",Rate how much you want to eat this food from 0 (least) to 10 (most).,45209.800000000745,1669840758706,cherry tomato,5460.800000000745,True,4.92,50670.60000000149,5460.800000000745,True,HRV,HRV_0291,2022-11-30 20:43:32
10,"[{'imgObject': {}, 'id': 'veggieswithdip', 'src': '/static/foodstim60/veggieswithdip.jpg', 'key': 'NaN', 'origWidth': 409, 'origHeight': 409, 'width': 409, 'height': 409, 'widthPercent': 0.8, 'rescaleHeight': True, 'trialN': 10, 'loaded': True, 'loadedTime': 1982.2000000029802, 'positionName': 'CENTER', 'positionCoords': [435.5, 155.5]}]",Rate how much you want to eat this food from 0 (least) to 10 (most).,50673.70000000298,1669840764170,veggieswithdip,4609.89999999851,True,0.39,55283.60000000149,4609.89999999851,True,HRV,HRV_0291,2022-11-30 20:43:32
11,"[{'imgObject': {}, 'id': 'sushi w_condiments', 'src': '/static/foodstim60/sushi w_condiments.jpg', 'key': 'NaN', 'origWidth': 410, 'origHeight': 410, 'width': 410, 'height': 410, 'widthPercent': 0.8, 'rescaleHeight': True, 'trialN': 11, 'loaded': True, 'loadedTime': 2040.7000000029802, 'positionName': 'CENTER', 'positionCoords': [435, 155]}]",Rate how much you want to eat this food from 0 (least) to 10 (most).,55286.20000000298,1669840768783,sushi w_condiments,7384.39999999851,True,3.59,62670.60000000149,7384.39999999851,True,HRV,HRV_0291,2022-11-30 20:43:32
12,"[{'imgObject': {}, 'id': 'apple slices', 'src': '/static/foodstim60/apple slices.jpg', 'key': 'NaN', 'origWidth': 409, 'origHeight': 410, 'width': 409, 'height': 410, 'widthPercent': 0.8, 'rescaleHeight': True, 'trialN': 12, 'loaded': True, 'loadedTime': 2045.1000000014901, 'positionName': 'CENTER', 'positionCoords': [435.5, 155]}]",Rate how much you want to eat this food from 0 (least) to 10 (most).,62673.5,1669840776170,apple slices,6485.10000000149,True,3.68,69158.60000000149,6485.10000000149,True,HRV,HRV_0291,2022-11-30 20:43:32
13,"[{'imgObject': {}, 'id': 'eggs', 'src': '/static/foodstim60/eggs.jpg', 'key': 'NaN', 'origWidth': 409, 'origHeight': 409, 'width': 409, 'height': 409, 'widthPercent': 0.8, 'rescaleHeight': True, 'trialN': 13, 'loaded': True, 'loadedTime': 2054.60000000149, 'positionName': 'CENTER', 'positionCoords': [435.5, 155.5]}]",Rate how much you want to eat this food from 0 (least) to 10 (most).,69161.40000000224,1669840782658,eggs,3904.199999999255,True,7.95,73065.60000000149,3904.199999999255,True,HRV,HRV_0291,2022-11-30 20:43:32
14,"[{'imgObject': {}, 'id': 'banana', 'src': '/static/foodstim60/banana.jpg', 'key': 'NaN', 'origWidth': 410, 'origHeight': 410, 'width': 410, 'height': 410, 'widthPercent': 0.8, 'rescaleHeight': True, 'trialN': 14, 'loaded': True, 'loadedTime': 2053.400000002235, 'positionName': 'CENTER', 'positionCoords': [435, 155]}]",Rate how much you want to eat this food from 0 (least) to 10 (most).,73069.20000000298,1669840786566,banana,5260.39999999851,True,3.2600000000000002,78329.60000000149,5260.39999999851,True,HRV,HRV_0291,2022-11-30 20:43:32
15,"[{'imgObject': {}, 'id': 'turkey sandwich', 'src': '/static/foodstim60/turkey sandwich.jpg', 'key': 'NaN', 'origWidth': 409, 'origHeight': 409, 'width': 409, 'height': 409, 'widthPercent': 0.8, 'rescaleHeight': True, 'trialN': 15, 'loaded': True, 'loadedTime': 2050.10000000149, 'positionName': 'CENTER', 'positionCoords': [435.5, 155.5]}]",Rate how much you want to eat this food from 0 (least) to 10 (most).,78330.70000000298,1669840791827,turkey sandwich,2707.89999999851,True,9.89,81038.60000000149,2707.89999999851,True,HRV,HRV_0291,2022-11-30 20:43:32
16,"[{'imgObject': {}, 'id': 'rigatoni and sauce', 'src': '/static/foodstim60/rigatoni and sauce.jpg', 'key': 'NaN', 'origWidth': 410, 'origHeight': 411, 'width': 410, 'height': 411, 'widthPercent': 0.8, 'rescaleHeight': True, 'trialN': 16, 'loaded': True, 'loadedTime': 2047.6000000014901, 'positionName': 'CENTER', 'positionCoords': [435, 154.5]}]",Rate how much you want to eat this food from 0 (least) to 10 (most).,81042.0,1669840794538,rigatoni and sauce,3154.60000000149,True,6.71,84196.60000000149,3154.60000000149,True,HRV,HRV_0291,2022-11-30 20:43:32
17,"[{'imgObject': {}, 'id': 'turkeysandwich', 'src': '/static/foodstim60/turkeysandwich.jpg', 'key': 'NaN', 'origWidth': 409, 'origHeight': 409, 'width': 409, 'height': 409, 'widthPercent': 0.8, 'rescaleHeight': True, 'trialN': 17, 'loaded': True, 'loadedTime': 2096.900000002235, 'positionName': 'CENTER', 'positionCoords': [435.5, 155.5]}]",Rate how much you want to eat this food from 0 (least) to 10 (most).,84199.30000000075,1669840797696,turkeysandwich,5322.300000000745,True,9.040000000000001,89521.60000000149,5322.300000000745,True,HRV,HRV_0291,2022-11-30 20:43:32
18,"[{'imgObject': {}, 'id': 'avocado', 'src': '/static/foodstim60/avocado.jpg', 'key': 'NaN', 'origWidth': 409, 'origHeight': 409, 'width': 409, 'height': 409, 'widthPercent': 0.8, 'rescaleHeight': True, 'trialN': 18, 'loaded': True, 'loadedTime': 2104.5, 'positionName': 'CENTER', 'positionCoords': [435.5, 155.5]}]",Rate how much you want to eat this food from 0 (least) to 10 (most).,89524.30000000075,1669840803021,avocado,4778.300000000745,True,0.14,94302.60000000149,4778.300000000745,True,HRV,HRV_0291,2022-11-30 20:43:32
19,"[{'imgObject': {}, 'id': 'lox', 'src': '/static/foodstim60/lox.jpg', 'key': 'NaN', 'origWidth': 410, 'origHeight': 411, 'width': 410, 'height': 411, 'widthPercent': 0.8, 'rescaleHeight': True, 'trialN': 19, 'loaded': True, 'loadedTime': 2112.800000000745, 'positionName': 'CENTER', 'positionCoords': [435, 154.5]}]",Rate how much you want to eat this food from 0 (least) to 10 (most).,94305.60000000149,1669840807802,lox,6155.0,True,4.93,100460.60000000149,6155.0,True,HRV,HRV_0291,2022-11-30 20:43:32
20,"[{'imgObject': {}, 'id': 'eggsalad', 'src': '/static/foodstim60/eggsalad.jpg', 'key': 'NaN', 'origWidth': 410, 'origHeight': 409, 'width': 410, 'height': 409, 'widthPercent': 0.8, 'rescaleHeight': True, 'trialN': 20, 'loaded': True, 'loadedTime': 2105.2000000029802, 'positionName': 'CENTER', 'positionCoords': [435, 155.5]}]",Rate how much you want to eat this food from 0 (least) to 10 (most).,100464.10000000149,1669840813960,eggsalad,8289.5,True,2.82,108753.60000000149,8289.5,True,HRV,HRV_0291,2022-11-30 20:43:32
21,"[{'imgObject': {}, 'id': 'grilled chicken strips', 'src': '/static/foodstim60/grilled chicken strips.jpg', 'key': 'NaN', 'origWidth': 410, 'origHeight': 411, 'width': 410, 'height': 411, 'widthPercent': 0.8, 'rescaleHeight': True, 'trialN': 21, 'loaded': True, 'loadedTime': 2114.300000000745, 'positionName': 'CENTER', 'positionCoords': [435, 154.5]}]",Rate how much you want to eat this food from 0 (least) to 10 (most).,108756.20000000298,1669840822253,grilled chicken strips,3022.39999999851,True,9.85,111778.60000000149,3022.39999999851,True,HRV,HRV_0291,2022-11-30 20:43:32
22,"[{'imgObject': {}, 'id': 'fried eggs', 'src': '/static/foodstim60/fried eggs.jpg', 'key': 'NaN', 'origWidth': 410, 'origHeight': 410, 'width': 410, 'height': 410, 'widthPercent': 0.8, 'rescaleHeight': True, 'trialN': 22, 'loaded': True, 'loadedTime': 2117.5, 'positionName': 'CENTER', 'positionCoords': [435, 155]}]",Rate how much you want to eat this food from 0 (least) to 10 (most).,111782.10000000149,1669840825279,fried eggs,3470.5,True,8.64,115252.60000000149,3470.5,True,HRV,HRV_0291,2022-11-30 20:43:32
23,"[{'imgObject': {}, 'id': 'baked potato', 'src': '/static/foodstim60/baked potato.jpg', 'key': 'NaN', 'origWidth': 409, 'origHeight': 410, 'width': 409, 'height': 410, 'widthPercent': 0.8, 'rescaleHeight': True, 'trialN': 23, 'loaded': True, 'loadedTime': 2151.5, 'positionName': 'CENTER', 'positionCoords': [435.5, 155]}]",Rate how much you want to eat this food from 0 (least) to 10 (most).,115256.10000000149,1669840828753,baked potato,4807.5,True,8.040000000000001,120063.60000000149,4807.5,True,HRV,HRV_0291,2022-11-30 20:43:32
24,"[{'imgObject': {}, 'id': 'rigatoni', 'src': '/static/foodstim60/rigatoni.jpg', 'key': 'NaN', 'origWidth': 411, 'origHeight': 411, 'width': 411, 'height': 411, 'widthPercent': 0.8, 'rescaleHeight': True, 'trialN': 24, 'loaded': True, 'loadedTime': 2163.400000002235, 'positionName': 'CENTER', 'positionCoords': [434.5, 154.5]}]",Rate how much you want to eat this food from 0 (least) to 10 (most).,120065.90000000224,1669840833562,rigatoni,4521.699999999255,True,6.57,124587.60000000149,4521.699999999255,True,HRV,HRV_0291,2022-11-30 20:43:32
25,"[{'imgObject': {}, 'id': 'burger', 'src': '/static/foodstim60/burger.jpg', 'key': 'NaN', 'origWidth': 409, 'origHeight': 409, 'width': 409, 'height': 409, 'widthPercent': 0.8, 'rescaleHeight': True, 'trialN': 25, 'loaded': True, 'loadedTime': 2160.5, 'positionName': 'CENTER', 'positionCoords': [435.5, 155.5]}]",Rate how much you want to eat this food from 0 (least) to 10 (most).,124589.80000000075,1669840838086,burger,3672.800000000745,True,9.59,128262.60000000149,3672.800000000745,True,HRV,HRV_0291,2022-11-30 20:43:32
26,"[{'imgObject': {}, 'id': 'blackbeanswithrice', 'src': '/static/foodstim60/blackbeanswithrice.jpg', 'key': 'NaN', 'origWidth': 410, 'origHeight': 410, 'width': 410, 'height': 410, 'widthPercent': 0.8, 'rescaleHeight': True, 'trialN': 26, 'loaded': True, 'loadedTime': 2157.400000002235, 'positionName': 'CENTER', 'positionCoords': [435, 155]}]",Rate how much you want to eat this food from 0 (least) to 10 (most).,128264.70000000298,1669840841761,blackbeanswithrice,8324.89999999851,True,3.39,136589.6000000015,8324.89999999851,True,HRV,HRV_0291,2022-11-30 20:43:32
27,"[{'imgObject': {}, 'id': 'corn cob', 'src': '/static/foodstim60/corn cob.jpg', 'key': 'NaN', 'origWidth': 411, 'origHeight': 411, 'width': 411, 'height': 411, 'widthPercent': 0.8, 'rescaleHeight': True, 'trialN': 27, 'loaded': True, 'loadedTime': 2168.400000002235, 'positionName': 'CENTER', 'positionCoords': [434.5, 154.5]}]",Rate how much you want to eat this food from 0 (least) to 10 (most).,136592.1000000015,1669840850089,corn cob,3395.5,True,7.17,139987.6000000015,3395.5,True,HRV,HRV_0291,2022-11-30 20:43:32
28,"[{'imgObject': {}, 'id': 'shreddedwheatwithmilk', 'src': '/static/foodstim60/shreddedwheatwithmilk.jpg', 'key': 'NaN', 'origWidth': 410, 'origHeight': 410, 'width': 410, 'height': 410, 'widthPercent': 0.8, 'rescaleHeight': True, 'trialN': 28, 'loaded': True, 'loadedTime': 2173.7000000029802, 'positionName': 'CENTER', 'positionCoords': [435, 155]}]",Rate how much you want to eat this food from 0 (least) to 10 (most).,139989.90000000224,1669840853486,shreddedwheatwithmilk,6366.699999999255,True,2.7600000000000002,146356.6000000015,6366.699999999255,True,HRV,HRV_0291,2022-11-30 20:43:32
29,"[{'imgObject': {}, 'id': 'sweetpotato', 'src': '/static/foodstim60/sweetpotato.jpg', 'key': 'NaN', 'origWidth': 410, 'origHeight': 410, 'width': 410, 'height': 410, 'widthPercent': 0.8, 'rescaleHeight': True, 'trialN': 29, 'loaded': True, 'loadedTime': 2198.5, 'positionName': 'CENTER', 'positionCoords': [435, 155]}]",Rate how much you want to eat this food from 0 (least) to 10 (most).,146359.30000000075,1669840859856,sweetpotato,6071.300000000745,True,0.89,152430.6000000015,6071.300000000745,True,HRV,HRV_0291,2022-11-30 20:43:32
30,"[{'imgObject': {}, 'id': 'granola w milk', 'src': '/static/foodstim60/granola w milk.jpg', 'key': 'NaN', 'origWidth': 410, 'origHeight': 410, 'width': 410, 'height': 410, 'widthPercent': 0.8, 'rescaleHeight': True, 'trialN': 30, 'loaded': True, 'loadedTime': 2205.900000002235, 'positionName': 'CENTER', 'positionCoords': [435, 155]}]",Rate how much you want to eat this food from 0 (least) to 10 (most).,152432.0,1669840865928,granola w milk,4328.60000000149,True,2.71,156760.6000000015,4328.60000000149,True,HRV,HRV_0291,2022-11-30 20:43:32
31,"[{'imgObject': {}, 'id': 'mango', 'src': '/static/foodstim60/mango.jpg', 'key': 'NaN', 'origWidth': 411, 'origHeight': 411, 'width': 411, 'height': 411, 'widthPercent': 0.8, 'rescaleHeight': True, 'trialN': 31, 'loaded': True, 'loadedTime': 2209.300000000745, 'positionName': 'CENTER', 'positionCoords': [434.5, 154.5]}]",Rate how much you want to eat this food from 0 (least) to 10 (most).,156762.5,1669840870259,mango,4268.10000000149,True,0.98,161030.6000000015,4268.10000000149,True,HRV,HRV_0291,2022-11-30 20:43:32
32,"[{'imgObject': {}, 'id': 'tacos', 'src': '/static/foodstim60/tacos.jpg', 'key': 'NaN', 'origWidth': 411, 'origHeight': 411, 'width': 411, 'height': 411, 'widthPercent': 0.8, 'rescaleHeight': True, 'trialN': 32, 'loaded': True, 'loadedTime': 2248.400000002235, 'positionName': 'CENTER', 'positionCoords': [434.5, 154.5]}]",Rate how much you want to eat this food from 0 (least) to 10 (most).,161032.5,1669840874529,tacos,3950.10000000149,True,9.56,164982.6000000015,3950.10000000149,True,HRV,HRV_0291,2022-11-30 20:43:32
33,"[{'imgObject': {}, 'id': 'hotdog w must', 'src': '/static/foodstim60/hotdog w must.jpg', 'key': 'NaN', 'origWidth': 409, 'origHeight': 409, 'width': 409, 'height': 409, 'widthPercent': 0.8, 'rescaleHeight': True, 'trialN': 33, 'loaded': True, 'loadedTime': 2249.800000000745, 'positionName': 'CENTER', 'positionCoords': [435.5, 155.5]}]",Rate how much you want to eat this food from 0 (least) to 10 (most).,164985.1000000015,1669840878482,hotdog w must,2667.5,True,8.09,167652.6000000015,2667.5,True,HRV,HRV_0291,2022-11-30 20:43:32
34,"[{'imgObject': {}, 'id': 'omelette', 'src': '/static/foodstim60/omelette.jpg', 'key': 'NaN', 'origWidth': 410, 'origHeight': 409, 'width': 410, 'height': 409, 'widthPercent': 0.8, 'rescaleHeight': True, 'trialN': 34, 'loaded': True, 'loadedTime': 2262.900000002235, 'positionName': 'CENTER', 'positionCoords': [435, 155.5]}]",Rate how much you want to eat this food from 0 (least) to 10 (most).,167654.1000000015,1669840881150,omelette,4088.5,True,8.790000000000001,171742.6000000015,4088.5,True,HRV,HRV_0291,2022-11-30 20:43:32
35,"[{'imgObject': {}, 'id': 'fruitsalad', 'src': '/static/foodstim60/fruitsalad.jpg', 'key': 'NaN', 'origWidth': 410, 'origHeight': 410, 'width': 410, 'height': 410, 'widthPercent': 0.8, 'rescaleHeight': True, 'trialN': 35, 'loaded': True, 'loadedTime': 2245.300000000745, 'positionName': 'CENTER', 'positionCoords': [435, 155]}]",Rate how much you want to eat this food from 0 (least) to 10 (most).,171745.30000000075,1669840885242,fruitsalad,4935.300000000745,True,0.42,176680.6000000015,4935.300000000745,True,HRV,HRV_0291,2022-11-30 20:43:32
36,"[{'imgObject': {}, 'id': 'ice cream sundae 002', 'src': '/static/foodstim60/ice cream sundae 002.jpg', 'key': 'NaN', 'origWidth': 409, 'origHeight': 409, 'width': 409, 'height': 409, 'widthPercent': 0.8, 'rescaleHeight': True, 'trialN': 36, 'loaded': True, 'loadedTime': 2266.60000000149, 'positionName': 'CENTER', 'positionCoords': [435.5, 155.5]}]",Rate how much you want to eat this food from 0 (least) to 10 (most).,176683.20000000298,1669840890180,ice cream sundae 002,7092.39999999851,True,4.98,183775.6000000015,7092.39999999851,True,HRV,HRV_0291,2022-11-30 20:43:32
37,"[{'imgObject': {}, 'id': 'salad w chicken', 'src': '/static/foodstim60/salad w chicken.jpg', 'key': 'NaN', 'origWidth': 411, 'origHeight': 411, 'width': 411, 'height': 411, 'widthPercent': 0.8, 'rescaleHeight': True, 'trialN': 37, 'loaded': True, 'loadedTime': 2268.400000002235, 'positionName': 'CENTER', 'positionCoords': [434.5, 154.5]}]",Rate how much you want to eat this food from 0 (least) to 10 (most).,183778.20000000298,1669840897275,salad w chicken,5821.39999999851,True,9.6,189599.6000000015,5821.39999999851,True,HRV,HRV_0291,2022-11-30 20:43:32
38,"[{'imgObject': {}, 'id': 'cheerios', 'src': '/static/foodstim60/cheerios.jpg', 'key': 'NaN', 'origWidth': 409, 'origHeight': 410, 'width': 409, 'height': 410, 'widthPercent': 0.8, 'rescaleHeight': True, 'trialN': 38, 'loaded': True, 'loadedTime': 2294, 'positionName': 'CENTER', 'positionCoords': [435.5, 155]}]",Rate how much you want to eat this food from 0 (least) to 10 (most).,189601.80000000075,1669840903098,cheerios,4327.800000000745,True,5.03,193929.6000000015,4327.800000000745,True,HRV,HRV_0291,2022-11-30 20:43:32
39,"[{'imgObject': {}, 'id': 'cherries', 'src': '/static/foodstim60/cherries.jpg', 'key': 'NaN', 'origWidth': 410, 'origHeight': 411, 'width': 410, 'height': 411, 'widthPercent': 0.8, 'rescaleHeight': True, 'trialN': 39, 'loaded': True, 'loadedTime': 2317.400000002235, 'positionName': 'CENTER', 'positionCoords': [435, 154.5]}]",Rate how much you want to eat this food from 0 (least) to 10 (most).,193932.70000000298,1669840907429,cherries,3506.89999999851,True,1.26,197439.6000000015,3506.89999999851,True,HRV,HRV_0291,2022-11-30 20:43:32
40,"[{'imgObject': {}, 'id': 'chickenfingers', 'src': '/static/foodstim60/chickenfingers.jpg', 'key': 'NaN', 'origWidth': 410, 'origHeight': 410, 'width': 410, 'height': 410, 'widthPercent': 0.8, 'rescaleHeight': True, 'trialN': 40, 'loaded': True, 'loadedTime': 2313.900000002235, 'positionName': 'CENTER', 'positionCoords': [435, 155]}]",Rate how much you want to eat this food from 0 (least) to 10 (most).,197442.80000000075,1669840910939,chickenfingers,2547.800000000745,True,10.0,199990.6000000015,2547.800000000745,True,HRV,HRV_0291,2022-11-30 20:43:32
41,"[{'imgObject': {}, 'id': 'mashed potato', 'src': '/static/foodstim60/mashed potato.jpg', 'key': 'NaN', 'origWidth': 409, 'origHeight': 409, 'width': 409, 'height': 409, 'widthPercent': 0.8, 'rescaleHeight': True, 'trialN': 41, 'loaded': True, 'loadedTime': 2321.10000000149, 'positionName': 'CENTER', 'positionCoords': [435.5, 155.5]}]",Rate how much you want to eat this food from 0 (least) to 10 (most).,199993.30000000075,1669840913490,mashed potato,5200.300000000745,True,7.25,205193.6000000015,5200.300000000745,True,HRV,HRV_0291,2022-11-30 20:43:32
42,"[{'imgObject': {}, 'id': 'Grapes', 'src': '/static/foodstim60/Grapes.jpg', 'key': 'NaN', 'origWidth': 411, 'origHeight': 411, 'width': 411, 'height': 411, 'widthPercent': 0.8, 'rescaleHeight': True, 'trialN': 42, 'loaded': True, 'loadedTime': 2333.800000000745, 'positionName': 'CENTER', 'positionCoords': [434.5, 154.5]}]",Rate how much you want to eat this food from 0 (least) to 10 (most).,205196.40000000224,1669840918693,Grapes,2688.199999999255,True,2.98,207884.6000000015,2688.199999999255,True,HRV,HRV_0291,2022-11-30 20:43:32
43,"[{'imgObject': {}, 'id': 'froot loops w milk', 'src': '/static/foodstim60/froot loops w milk.jpg', 'key': 'NaN', 'origWidth': 410, 'origHeight': 410, 'width': 410, 'height': 410, 'widthPercent': 0.8, 'rescaleHeight': True, 'trialN': 43, 'loaded': True, 'loadedTime': 2326.900000002235, 'positionName': 'CENTER', 'positionCoords': [435, 155]}]",Rate how much you want to eat this food from 0 (least) to 10 (most).,207887.5,1669840921384,froot loops w milk,4064.10000000149,True,6.59,211951.6000000015,4064.10000000149,True,HRV,HRV_0291,2022-11-30 20:43:32
44,"[{'imgObject': {}, 'id': 'kiwi', 'src': '/static/foodstim60/kiwi.jpg', 'key': 'NaN', 'origWidth': 410, 'origHeight': 410, 'width': 410, 'height': 410, 'widthPercent': 0.8, 'rescaleHeight': True, 'trialN': 44, 'loaded': True, 'loadedTime': 2361.300000000745, 'positionName': 'CENTER', 'positionCoords': [435, 155]}]",Rate how much you want to eat this food from 0 (least) to 10 (most).,211954.0,1669840925451,kiwi,3971.60000000149,True,0.18,215925.6000000015,3971.60000000149,True,HRV,HRV_0291,2022-11-30 20:43:32
45,"[{'imgObject': {}, 'id': 'pear', 'src': '/static/foodstim60/pear.jpg', 'key': 'NaN', 'origWidth': 411, 'origHeight': 410, 'width': 411, 'height': 410, 'widthPercent': 0.8, 'rescaleHeight': True, 'trialN': 45, 'loaded': True, 'loadedTime': 2369.5, 'positionName': 'CENTER', 'positionCoords': [434.5, 155]}]",Rate how much you want to eat this food from 0 (least) to 10 (most).,215929.40000000224,1669840929426,pear,5945.199999999255,True,1.29,221874.6000000015,5945.199999999255,True,HRV,HRV_0291,2022-11-30 20:43:32
46,"[{'imgObject': {}, 'id': 'popsicles', 'src': '/static/foodstim60/popsicles.jpg', 'key': 'NaN', 'origWidth': 410, 'origHeight': 410, 'width': 410, 'height': 410, 'widthPercent': 0.8, 'rescaleHeight': True, 'trialN': 46, 'loaded': True, 'loadedTime': 2371.10000000149, 'positionName': 'CENTER', 'positionCoords': [435, 155]}]",Rate how much you want to eat this food from 0 (least) to 10 (most).,221877.70000000298,1669840935374,popsicles,5357.89999999851,True,3.42,227235.6000000015,5357.89999999851,True,HRV,HRV_0291,2022-11-30 20:43:32
47,"[{'imgObject': {}, 'id': 'hashbrowns', 'src': '/static/foodstim60/hashbrowns.jpg', 'key': 'NaN', 'origWidth': 411, 'origHeight': 410, 'width': 411, 'height': 410, 'widthPercent': 0.8, 'rescaleHeight': True, 'trialN': 47, 'loaded': True, 'loadedTime': 2366, 'positionName': 'CENTER', 'positionCoords': [434.5, 155]}]",Rate how much you want to eat this food from 0 (least) to 10 (most).,227239.0,1669840940735,hashbrowns,6688.60000000149,True,1.37,233927.6000000015,6688.60000000149,True,HRV,HRV_0291,2022-11-30 20:43:32
48,"[{'imgObject': {}, 'id': 'cantaloupe', 'src': '/static/foodstim60/cantaloupe.jpg', 'key': 'NaN', 'origWidth': 409, 'origHeight': 409, 'width': 409, 'height': 409, 'widthPercent': 0.8, 'rescaleHeight': True, 'trialN': 48, 'loaded': True, 'loadedTime': 2382.800000000745, 'positionName': 'CENTER', 'positionCoords': [435.5, 155.5]}]",Rate how much you want to eat this food from 0 (least) to 10 (most).,233930.30000000075,1669840947427,cantaloupe,3682.300000000745,True,0.07,237612.6000000015,3682.300000000745,True,HRV,HRV_0291,2022-11-30 20:43:32
49,"[{'imgObject': {}, 'id': 'burrito', 'src': '/static/foodstim60/burrito.jpg', 'key': 'NaN', 'origWidth': 410, 'origHeight': 410, 'width': 410, 'height': 410, 'widthPercent': 0.8, 'rescaleHeight': True, 'trialN': 49, 'loaded': True, 'loadedTime': 2385.10000000149, 'positionName': 'CENTER', 'positionCoords': [435, 155]}]",Rate how much you want to eat this food from 0 (least) to 10 (most).,237615.40000000224,1669840951112,burrito,5501.199999999255,True,7.0600000000000005,243116.6000000015,5501.199999999255,True,HRV,HRV_0291,2022-11-30 20:43:32
50,"[{'imgObject': {}, 'id': 'Tribe humus pita', 'src': '/static/foodstim60/Tribe humus pita.jpg', 'key': 'NaN', 'origWidth': 411, 'origHeight': 411, 'width': 411, 'height': 411, 'widthPercent': 0.8, 'rescaleHeight': True, 'trialN': 50, 'loaded': True, 'loadedTime': 2409.60000000149, 'positionName': 'CENTER', 'positionCoords': [434.5, 154.5]}]",Rate how much you want to eat this food from 0 (least) to 10 (most).,243117.80000000075,1669840956614,Tribe humus pita,5160.800000000745,True,6.21,248278.6000000015,5160.800000000745,True,HRV,HRV_0291,2022-11-30 20:43:32
51,"[{'imgObject': {}, 'id': 'roastedpotatoes', 'src': '/static/foodstim60/roastedpotatoes.jpg', 'key': 'NaN', 'origWidth': 409, 'origHeight': 410, 'width': 409, 'height': 410, 'widthPercent': 0.8, 'rescaleHeight': True, 'trialN': 51, 'loaded': True, 'loadedTime': 2420.5, 'positionName': 'CENTER', 'positionCoords': [435.5, 155]}]",Rate how much you want to eat this food from 0 (least) to 10 (most).,248279.90000000224,1669840961776,roastedpotatoes,5371.699999999255,True,8.6,253651.6000000015,5371.699999999255,True,HRV,HRV_0291,2022-11-30 20:43:32
52,"[{'imgObject': {}, 'id': 'strawberries', 'src': '/static/foodstim60/strawberries.jpg', 'key': 'NaN', 'origWidth': 410, 'origHeight': 410, 'width': 410, 'height': 410, 'widthPercent': 0.8, 'rescaleHeight': True, 'trialN': 52, 'loaded': True, 'loadedTime': 2422, 'positionName': 'CENTER', 'positionCoords': [435, 155]}]",Rate how much you want to eat this food from 0 (least) to 10 (most).,253654.80000000075,1669840967151,strawberries,7079.800000000745,True,5.01,260734.6000000015,7079.800000000745,True,HRV,HRV_0291,2022-11-30 20:43:32
53,"[{'imgObject': {}, 'id': 'raspberries', 'src': '/static/foodstim60/raspberries.jpg', 'key': 'NaN', 'origWidth': 411, 'origHeight': 411, 'width': 411, 'height': 411, 'widthPercent': 0.8, 'rescaleHeight': True, 'trialN': 53, 'loaded': True, 'loadedTime': 2423.900000002235, 'positionName': 'CENTER', 'positionCoords': [434.5, 154.5]}]",Rate how much you want to eat this food from 0 (least) to 10 (most).,260736.90000000224,1669840974233,raspberries,4254.699999999255,True,4.01,264991.6000000015,4254.699999999255,True,HRV,HRV_0291,2022-11-30 20:43:32
54,"[{'imgObject': {}, 'id': 'mac & cheese', 'src': '/static/foodstim60/mac & cheese.jpg', 'key': 'NaN', 'origWidth': 410, 'origHeight': 410, 'width': 410, 'height': 410, 'widthPercent': 0.8, 'rescaleHeight': True, 'trialN': 54, 'loaded': True, 'loadedTime': 2438.10000000149, 'positionName': 'CENTER', 'positionCoords': [435, 155]}]",Rate how much you want to eat this food from 0 (least) to 10 (most).,264995.6000000015,1669840978492,mac & cheese,3064.0,True,7.07,268059.6000000015,3064.0,True,HRV,HRV_0291,2022-11-30 20:43:32
55,"[{'imgObject': {}, 'id': 'raisin bran w milk', 'src': '/static/foodstim60/raisin bran w milk.jpg', 'key': 'NaN', 'origWidth': 411, 'origHeight': 411, 'width': 411, 'height': 411, 'widthPercent': 0.8, 'rescaleHeight': True, 'trialN': 55, 'loaded': True, 'loadedTime': 2442.400000002235, 'positionName': 'CENTER', 'positionCoords': [434.5, 154.5]}]",Rate how much you want to eat this food from 0 (least) to 10 (most).,268062.1000000015,1669840981559,raisin bran w milk,6418.5,True,3.5300000000000002,274480.6000000015,6418.5,True,HRV,HRV_0291,2022-11-30 20:43:32
56,"[{'imgObject': {}, 'id': 'edamame', 'src': '/static/foodstim60/edamame.jpg', 'key': 'NaN', 'origWidth': 409, 'origHeight': 410, 'width': 409, 'height': 410, 'widthPercent': 0.8, 'rescaleHeight': True, 'trialN': 56, 'loaded': True, 'loadedTime': 2462.60000000149, 'positionName': 'CENTER', 'positionCoords': [435.5, 155]}]",Rate how much you want to eat this food from 0 (least) to 10 (most).,274483.0,1669840987979,edamame,5276.60000000149,True,1.48,279759.6000000015,5276.60000000149,True,HRV,HRV_0291,2022-11-30 20:43:32
57,"[{'imgObject': {}, 'id': 'chicken nuggets2', 'src': '/static/foodstim60/chicken nuggets2.jpg', 'key': 'NaN', 'origWidth': 410, 'origHeight': 409, 'width': 410, 'height': 409, 'widthPercent': 0.8, 'rescaleHeight': True, 'trialN': 57, 'loaded': True, 'loadedTime': 2466.300000000745, 'positionName': 'CENTER', 'positionCoords': [435, 155.5]}]",Rate how much you want to eat this food from 0 (least) to 10 (most).,279761.1000000015,1669840993258,chicken nuggets2,3280.5,True,10.0,283041.6000000015,3280.5,True,HRV,HRV_0291,2022-11-30 20:43:32
58,"[{'imgObject': {}, 'id': 'luckycharms', 'src': '/static/foodstim60/luckycharms.jpg', 'key': 'NaN', 'origWidth': 410, 'origHeight': 409, 'width': 410, 'height': 409, 'widthPercent': 0.8, 'rescaleHeight': True, 'trialN': 58, 'loaded': True, 'loadedTime': 2485.300000000745, 'positionName': 'CENTER', 'positionCoords': [435, 155.5]}]",Rate how much you want to eat this food from 0 (least) to 10 (most).,283044.1000000015,1669840996541,luckycharms,8041.5,True,4.5600000000000005,291085.6000000015,8041.5,True,HRV,HRV_0291,2022-11-30 20:43:32
59,"[{'imgObject': {}, 'id': 'bagel and cc', 'src': '/static/foodstim60/bagel and cc.jpg', 'key': 'NaN', 'origWidth': 410, 'origHeight': 410, 'width': 410, 'height': 410, 'widthPercent': 0.8, 'rescaleHeight': True, 'trialN': 59, 'loaded': True, 'loadedTime': 2486.7000000029802, 'positionName': 'CENTER', 'positionCoords': [435, 155]}]",Rate how much you want to eat this food from 0 (least) to 10 (most).,291087.1000000015,1669841004584,bagel and cc,7339.5,True,6.25,298426.6000000015,7339.5,True,HRV,HRV_0291,2022-11-30 20:43:32
