trialN,stimuli,trialStartTime,trialStartTime_UNIX,stimulus1,stimulus2,stimulus1Bid,stimulus2Bid,delta,selected,rt,rt_UNIX,rt_perfnow,receivedResponse,rsp,trialEndTime,trialDuration,trialEndTime_UNIX,trialDuration_UNIX,exp,subjectId,date
0,"[{'imgObject': {}, 'id': 'cherries', 'src': '/static/foodstim60/cherries.jpg', 'key': 'u', 'origWidth': 410, 'origHeight': 411, 'width': 410, 'height': 411, 'widthPercent': 0.45, 'rescaleHeight': False, 'trialN': 0, 'loaded': True, 'loadedTime': 3786, 'positionName': 'LEFT', 'positionCoords': [204.4, 154.5], 'bid': 1.85}, {'imgObject': {}, 'id': 'orange slices', 'src': '/static/foodstim60/orange slices.jpg', 'key': 'i', 'origWidth': 409, 'origHeight': 410, 'width': 409, 'height': 410, 'widthPercent': 0.45, 'rescaleHeight': False, 'trialN': 0, 'loaded': True, 'loadedTime': 3787.60000000149, 'positionName': 'RIGHT', 'positionCoords': [665.6, 155], 'bid': 3.15}]",3891.60000000149,1669841274963,cherries,orange slices,1.85,3.15,1.2999999999999998,orange slices,1878.5,1879,1879.699999999255,True,i,6276.800000000745,2385.199999999255,1669841277348,2385,HRV,HRV_0291,2022-11-30 20:53:50
1,"[{'imgObject': {}, 'id': 'shreddedwheatwithmilk', 'src': '/static/foodstim60/shreddedwheatwithmilk.jpg', 'key': 'u', 'origWidth': 410, 'origHeight': 410, 'width': 410, 'height': 410, 'widthPercent': 0.45, 'rescaleHeight': False, 'trialN': 1, 'loaded': True, 'loadedTime': 3788.2000000029802, 'positionName': 'LEFT', 'positionCoords': [204.4, 155], 'bid': 3.18}, {'imgObject': {}, 'id': 'blackbeanswithrice', 'src': '/static/foodstim60/blackbeanswithrice.jpg', 'key': 'i', 'origWidth': 410, 'origHeight': 410, 'width': 410, 'height': 410, 'widthPercent': 0.45, 'rescaleHeight': False, 'trialN': 1, 'loaded': True, 'loadedTime': 3790.7000000029802, 'positionName': 'RIGHT', 'positionCoords': [665.6, 155], 'bid': 1.92}]",6277.10000000149,1669841277348,shreddedwheatwithmilk,blackbeanswithrice,3.18,1.92,-1.2600000000000002,shreddedwheatwithmilk,1537.0,1539,1539.0,True,u,8316.5,2039.3999999985099,1669841279387,2039,HRV,HRV_0291,2022-11-30 20:53:50
2,"[{'imgObject': {}, 'id': 'cocktailshrimp', 'src': '/static/foodstim60/cocktailshrimp.jpg', 'key': 'u', 'origWidth': 410, 'origHeight': 410, 'width': 410, 'height': 410, 'widthPercent': 0.45, 'rescaleHeight': False, 'trialN': 2, 'loaded': True, 'loadedTime': 3793.7000000029802, 'positionName': 'LEFT', 'positionCoords': [204.4, 155], 'bid': 0.03}, {'imgObject': {}, 'id': 'sweetpotato', 'src': '/static/foodstim60/sweetpotato.jpg', 'key': 'i', 'origWidth': 410, 'origHeight': 410, 'width': 410, 'height': 410, 'widthPercent': 0.45, 'rescaleHeight': False, 'trialN': 2, 'loaded': True, 'loadedTime': 3794.2000000029802, 'positionName': 'RIGHT', 'positionCoords': [665.6, 155], 'bid': 0.04}]",8316.70000000298,1669841279388,cocktailshrimp,sweetpotato,0.03,0.04,0.010000000000000002,sweetpotato,1722.3999999985099,1723,1723.8999999985099,True,i,10548.5,2231.7999999970198,1669841281619,2231,HRV,HRV_0291,2022-11-30 20:53:50
3,"[{'imgObject': {}, 'id': 'chicken nuggets2', 'src': '/static/foodstim60/chicken nuggets2.jpg', 'key': 'u', 'origWidth': 410, 'origHeight': 409, 'width': 410, 'height': 409, 'widthPercent': 0.45, 'rescaleHeight': False, 'trialN': 3, 'loaded': True, 'loadedTime': 3799.800000000745, 'positionName': 'LEFT', 'positionCoords': [204.4, 155.5], 'bid': 9.84}, {'imgObject': {}, 'id': 'eggs', 'src': '/static/foodstim60/eggs.jpg', 'key': 'i', 'origWidth': 409, 'origHeight': 409, 'width': 409, 'height': 409, 'widthPercent': 0.45, 'rescaleHeight': False, 'trialN': 3, 'loaded': True, 'loadedTime': 3806.7000000029802, 'positionName': 'RIGHT', 'positionCoords': [665.6, 155.5], 'bid': 8.620000000000001}]",10548.70000000298,1669841281620,chicken nuggets2,eggs,9.84,8.620000000000001,-1.2199999999999989,chicken nuggets2,981.3999999985099,983,983.3999999985099,True,u,12036.300000000745,1487.5999999977648,1669841283107,1487,HRV,HRV_0291,2022-11-30 20:53:50
4,"[{'imgObject': {}, 'id': 'tacos', 'src': '/static/foodstim60/tacos.jpg', 'key': 'u', 'origWidth': 411, 'origHeight': 411, 'width': 411, 'height': 411, 'widthPercent': 0.45, 'rescaleHeight': False, 'trialN': 4, 'loaded': True, 'loadedTime': 3807.60000000149, 'positionName': 'LEFT', 'positionCoords': [203.4, 154.5], 'bid': 9.59}, {'imgObject': {}, 'id': 'rigatoni and sauce', 'src': '/static/foodstim60/rigatoni and sauce.jpg', 'key': 'i', 'origWidth': 410, 'origHeight': 411, 'width': 410, 'height': 411, 'widthPercent': 0.45, 'rescaleHeight': False, 'trialN': 4, 'loaded': True, 'loadedTime': 3814.800000000745, 'positionName': 'RIGHT', 'positionCoords': [665.6, 154.5], 'bid': 6.79}]",12036.60000000149,1669841283107,tacos,rigatoni and sauce,9.59,6.79,-2.8,tacos,799.5,801,801.0,True,u,13340.400000002235,1303.800000000745,1669841284411,1304,HRV,HRV_0291,2022-11-30 20:53:50
5,"[{'imgObject': {}, 'id': 'raisin bran w milk', 'src': '/static/foodstim60/raisin bran w milk.jpg', 'key': 'u', 'origWidth': 411, 'origHeight': 411, 'width': 411, 'height': 411, 'widthPercent': 0.45, 'rescaleHeight': False, 'trialN': 5, 'loaded': True, 'loadedTime': 3821.400000002235, 'positionName': 'LEFT', 'positionCoords': [203.4, 154.5], 'bid': 4.03}, {'imgObject': {}, 'id': 'mango', 'src': '/static/foodstim60/mango.jpg', 'key': 'i', 'origWidth': 411, 'origHeight': 411, 'width': 411, 'height': 411, 'widthPercent': 0.45, 'rescaleHeight': False, 'trialN': 5, 'loaded': True, 'loadedTime': 3821.900000002235, 'positionName': 'RIGHT', 'positionCoords': [665.6, 154.5], 'bid': 0.62}]",13340.60000000149,1669841284412,raisin bran w milk,mango,4.03,0.62,-3.41,raisin bran w milk,1413.5,1415,1415.199999999255,True,u,15260.300000000745,1919.699999999255,1669841286331,1919,HRV,HRV_0291,2022-11-30 20:53:50
6,"[{'imgObject': {}, 'id': 'mac & cheese', 'src': '/static/foodstim60/mac & cheese.jpg', 'key': 'u', 'origWidth': 410, 'origHeight': 410, 'width': 410, 'height': 410, 'widthPercent': 0.45, 'rescaleHeight': False, 'trialN': 6, 'loaded': True, 'loadedTime': 3829.300000000745, 'positionName': 'LEFT', 'positionCoords': [204.4, 155], 'bid': 7.31}, {'imgObject': {}, 'id': 'chicken nuggets2', 'src': '/static/foodstim60/chicken nuggets2.jpg', 'key': 'i', 'origWidth': 410, 'origHeight': 409, 'width': 410, 'height': 409, 'widthPercent': 0.45, 'rescaleHeight': False, 'trialN': 6, 'loaded': True, 'loadedTime': 3800, 'positionName': 'RIGHT', 'positionCoords': [665.6, 155.5], 'bid': 9.84}]",15260.60000000149,1669841286331,mac & cheese,chicken nuggets2,7.31,9.84,2.5300000000000002,chicken nuggets2,784.5,786,785.3999999985099,True,i,16548.60000000149,1288.0,1669841287619,1288,HRV,HRV_0291,2022-11-30 20:53:50
7,"[{'imgObject': {}, 'id': 'chickenfingers', 'src': '/static/foodstim60/chickenfingers.jpg', 'key': 'u', 'origWidth': 410, 'origHeight': 410, 'width': 410, 'height': 410, 'widthPercent': 0.45, 'rescaleHeight': False, 'trialN': 7, 'loaded': True, 'loadedTime': 3831.5, 'positionName': 'LEFT', 'positionCoords': [204.4, 155], 'bid': 9.87}, {'imgObject': {}, 'id': 'burrito', 'src': '/static/foodstim60/burrito.jpg', 'key': 'i', 'origWidth': 410, 'origHeight': 410, 'width': 410, 'height': 410, 'widthPercent': 0.45, 'rescaleHeight': False, 'trialN': 7, 'loaded': True, 'loadedTime': 3833, 'positionName': 'RIGHT', 'positionCoords': [665.6, 155], 'bid': 7.42}]",16548.900000002235,1669841287620,chickenfingers,burrito,9.87,7.42,-2.4499999999999993,chickenfingers,1277.199999999255,1278,1278.5999999977648,True,u,18332.20000000298,1783.300000000745,1669841289403,1783,HRV,HRV_0291,2022-11-30 20:53:50
8,"[{'imgObject': {}, 'id': 'kiwi', 'src': '/static/foodstim60/kiwi.jpg', 'key': 'u', 'origWidth': 410, 'origHeight': 410, 'width': 410, 'height': 410, 'widthPercent': 0.45, 'rescaleHeight': False, 'trialN': 8, 'loaded': True, 'loadedTime': 3834.2000000029802, 'positionName': 'LEFT', 'positionCoords': [204.4, 155], 'bid': 0.2}, {'imgObject': {}, 'id': 'olives', 'src': '/static/foodstim60/olives.jpg', 'key': 'i', 'origWidth': 410, 'origHeight': 410, 'width': 410, 'height': 410, 'widthPercent': 0.45, 'rescaleHeight': False, 'trialN': 8, 'loaded': True, 'loadedTime': 3834.900000002235, 'positionName': 'RIGHT', 'positionCoords': [665.6, 155], 'bid': 0.35}]",18332.400000002235,1669841289403,kiwi,olives,0.2,0.35,0.14999999999999997,olives,1627.699999999255,1630,1629.8999999985099,True,i,20468.5,2136.099999997765,1669841291539,2136,HRV,HRV_0291,2022-11-30 20:53:50
9,"[{'imgObject': {}, 'id': 'cherry tomato', 'src': '/static/foodstim60/cherry tomato.jpg', 'key': 'u', 'origWidth': 410, 'origHeight': 410, 'width': 410, 'height': 410, 'widthPercent': 0.45, 'rescaleHeight': False, 'trialN': 9, 'loaded': True, 'loadedTime': 3836.2000000029802, 'positionName': 'LEFT', 'positionCoords': [204.4, 155], 'bid': 5.01}, {'imgObject': {}, 'id': 'strawberries', 'src': '/static/foodstim60/strawberries.jpg', 'key': 'i', 'origWidth': 410, 'origHeight': 410, 'width': 410, 'height': 410, 'widthPercent': 0.45, 'rescaleHeight': False, 'trialN': 9, 'loaded': True, 'loadedTime': 3836.900000002235, 'positionName': 'RIGHT', 'positionCoords': [665.6, 155], 'bid': 4.96}]",20468.70000000298,1669841291540,cherry tomato,strawberries,5.01,4.96,-0.04999999999999982,cherry tomato,1398.3999999985099,1400,1400.2999999970198,True,u,22372.5,1903.7999999970198,1669841293443,1903,HRV,HRV_0291,2022-11-30 20:53:50
10,"[{'imgObject': {}, 'id': 'mashed potato', 'src': '/static/foodstim60/mashed potato.jpg', 'key': 'u', 'origWidth': 409, 'origHeight': 409, 'width': 409, 'height': 409, 'widthPercent': 0.45, 'rescaleHeight': False, 'trialN': 10, 'loaded': True, 'loadedTime': 3847, 'positionName': 'LEFT', 'positionCoords': [205.4, 155.5], 'bid': 7.2}, {'imgObject': {}, 'id': 'baked potato', 'src': '/static/foodstim60/baked potato.jpg', 'key': 'i', 'origWidth': 409, 'origHeight': 410, 'width': 409, 'height': 410, 'widthPercent': 0.45, 'rescaleHeight': False, 'trialN': 10, 'loaded': True, 'loadedTime': 3853.300000000745, 'positionName': 'RIGHT', 'positionCoords': [665.6, 155], 'bid': 7.0600000000000005}]",22372.800000000745,1669841293444,mashed potato,baked potato,7.2,7.0600000000000005,-0.13999999999999968,baked potato,1993.300000000745,1995,1995.0,True,i,24868.400000002235,2495.60000000149,1669841295939,2495,HRV,HRV_0291,2022-11-30 20:53:50
11,"[{'imgObject': {}, 'id': 'seaweed', 'src': '/static/foodstim60/seaweed.jpg', 'key': 'u', 'origWidth': 410, 'origHeight': 410, 'width': 410, 'height': 410, 'widthPercent': 0.45, 'rescaleHeight': False, 'trialN': 11, 'loaded': True, 'loadedTime': 3854.400000002235, 'positionName': 'LEFT', 'positionCoords': [204.4, 155], 'bid': 2.57}, {'imgObject': {}, 'id': 'granola w milk', 'src': '/static/foodstim60/granola w milk.jpg', 'key': 'i', 'origWidth': 410, 'origHeight': 410, 'width': 410, 'height': 410, 'widthPercent': 0.45, 'rescaleHeight': False, 'trialN': 11, 'loaded': True, 'loadedTime': 3859, 'positionName': 'RIGHT', 'positionCoords': [665.6, 155], 'bid': 3.01}]",24868.70000000298,1669841295940,seaweed,granola w milk,2.57,3.01,0.43999999999999995,seaweed,2042.3999999985099,2044,2043.8999999985099,True,u,27420.400000002235,2551.699999999255,1669841298491,2551,HRV,HRV_0291,2022-11-30 20:53:50
12,"[{'imgObject': {}, 'id': 'froot loops w milk', 'src': '/static/foodstim60/froot loops w milk.jpg', 'key': 'u', 'origWidth': 410, 'origHeight': 410, 'width': 410, 'height': 410, 'widthPercent': 0.45, 'rescaleHeight': False, 'trialN': 12, 'loaded': True, 'loadedTime': 3859.60000000149, 'positionName': 'LEFT', 'positionCoords': [204.4, 155], 'bid': 5.82}, {'imgObject': {}, 'id': 'bagel plain', 'src': '/static/foodstim60/bagel plain.jpg', 'key': 'i', 'origWidth': 410, 'origHeight': 410, 'width': 410, 'height': 410, 'widthPercent': 0.45, 'rescaleHeight': False, 'trialN': 12, 'loaded': True, 'loadedTime': 3863.5, 'positionName': 'RIGHT', 'positionCoords': [665.6, 155], 'bid': 5.0600000000000005}]",27420.70000000298,1669841298492,froot loops w milk,bagel plain,5.82,5.0600000000000005,-0.7599999999999998,froot loops w milk,1681.3999999985099,1682,1682.699999999255,True,u,29604.5,2183.7999999970198,1669841300675,2183,HRV,HRV_0291,2022-11-30 20:53:50
13,"[{'imgObject': {}, 'id': 'seaweed', 'src': '/static/foodstim60/seaweed.jpg', 'key': 'u', 'origWidth': 410, 'origHeight': 410, 'width': 410, 'height': 410, 'widthPercent': 0.45, 'rescaleHeight': False, 'trialN': 13, 'loaded': True, 'loadedTime': 3854.300000000745, 'positionName': 'LEFT', 'positionCoords': [204.4, 155], 'bid': 2.57}, {'imgObject': {}, 'id': 'avocado', 'src': '/static/foodstim60/avocado.jpg', 'key': 'i', 'origWidth': 409, 'origHeight': 409, 'width': 409, 'height': 409, 'widthPercent': 0.45, 'rescaleHeight': False, 'trialN': 13, 'loaded': True, 'loadedTime': 3864, 'positionName': 'RIGHT', 'positionCoords': [665.6, 155.5], 'bid': 0.03}]",29604.70000000298,1669841300676,seaweed,avocado,2.57,0.03,-2.54,seaweed,1222.3999999985099,1224,1223.8999999985099,True,u,31332.400000002235,1727.699999999255,1669841302403,1727,HRV,HRV_0291,2022-11-30 20:53:50
14,"[{'imgObject': {}, 'id': 'tacos', 'src': '/static/foodstim60/tacos.jpg', 'key': 'u', 'origWidth': 411, 'origHeight': 411, 'width': 411, 'height': 411, 'widthPercent': 0.45, 'rescaleHeight': False, 'trialN': 14, 'loaded': True, 'loadedTime': 3807.10000000149, 'positionName': 'LEFT', 'positionCoords': [203.4, 154.5], 'bid': 9.59}, {'imgObject': {}, 'id': 'hotdog w must', 'src': '/static/foodstim60/hotdog w must.jpg', 'key': 'i', 'origWidth': 409, 'origHeight': 409, 'width': 409, 'height': 409, 'widthPercent': 0.45, 'rescaleHeight': False, 'trialN': 14, 'loaded': True, 'loadedTime': 3868.10000000149, 'positionName': 'RIGHT', 'positionCoords': [665.6, 155.5], 'bid': 7.28}]",31332.60000000149,1669841302404,tacos,hotdog w must,9.59,7.28,-2.3099999999999996,tacos,923.5,925,925.3000000007451,True,u,32764.400000002235,1431.800000000745,1669841303835,1431,HRV,HRV_0291,2022-11-30 20:53:50
15,"[{'imgObject': {}, 'id': 'burger', 'src': '/static/foodstim60/burger.jpg', 'key': 'u', 'origWidth': 409, 'origHeight': 409, 'width': 409, 'height': 409, 'widthPercent': 0.45, 'rescaleHeight': False, 'trialN': 15, 'loaded': True, 'loadedTime': 3868.5, 'positionName': 'LEFT', 'positionCoords': [205.4, 155.5], 'bid': 8.71}, {'imgObject': {}, 'id': 'shreddedwheatwithmilk', 'src': '/static/foodstim60/shreddedwheatwithmilk.jpg', 'key': 'i', 'origWidth': 410, 'origHeight': 410, 'width': 410, 'height': 410, 'widthPercent': 0.45, 'rescaleHeight': False, 'trialN': 15, 'loaded': True, 'loadedTime': 3789.300000000745, 'positionName': 'RIGHT', 'positionCoords': [665.6, 155], 'bid': 3.18}]",32764.70000000298,1669841303836,burger,shreddedwheatwithmilk,8.71,3.18,-5.530000000000001,burger,1088.3999999985099,1089,1089.699999999255,True,u,34356.400000002235,1591.699999999255,1669841305427,1591,HRV,HRV_0291,2022-11-30 20:53:50
16,"[{'imgObject': {}, 'id': 'blackbeanswithrice', 'src': '/static/foodstim60/blackbeanswithrice.jpg', 'key': 'u', 'origWidth': 410, 'origHeight': 410, 'width': 410, 'height': 410, 'widthPercent': 0.45, 'rescaleHeight': False, 'trialN': 16, 'loaded': True, 'loadedTime': 3791.2000000029802, 'positionName': 'LEFT', 'positionCoords': [204.4, 155], 'bid': 1.92}, {'imgObject': {}, 'id': 'hotdog w must', 'src': '/static/foodstim60/hotdog w must.jpg', 'key': 'i', 'origWidth': 409, 'origHeight': 409, 'width': 409, 'height': 409, 'widthPercent': 0.45, 'rescaleHeight': False, 'trialN': 16, 'loaded': True, 'loadedTime': 3868.10000000149, 'positionName': 'RIGHT', 'positionCoords': [665.6, 155.5], 'bid': 7.28}]",34356.70000000298,1669841305428,blackbeanswithrice,hotdog w must,1.92,7.28,5.36,hotdog w must,731.3999999985099,732,732.8999999985099,True,i,35596.5,1239.7999999970198,1669841306667,1239,HRV,HRV_0291,2022-11-30 20:53:50
17,"[{'imgObject': {}, 'id': 'Grapes', 'src': '/static/foodstim60/Grapes.jpg', 'key': 'u', 'origWidth': 411, 'origHeight': 411, 'width': 411, 'height': 411, 'widthPercent': 0.45, 'rescaleHeight': False, 'trialN': 17, 'loaded': True, 'loadedTime': 3872.2000000029802, 'positionName': 'LEFT', 'positionCoords': [203.4, 154.5], 'bid': 2.87}, {'imgObject': {}, 'id': 'seaweed', 'src': '/static/foodstim60/seaweed.jpg', 'key': 'i', 'origWidth': 410, 'origHeight': 410, 'width': 410, 'height': 410, 'widthPercent': 0.45, 'rescaleHeight': False, 'trialN': 17, 'loaded': True, 'loadedTime': 3853.7000000029802, 'positionName': 'RIGHT', 'positionCoords': [665.6, 155], 'bid': 2.57}]",35596.800000000745,1669841306668,Grapes,seaweed,2.87,2.57,-0.30000000000000027,Grapes,1772.300000000745,1774,1773.9000000022352,True,u,37876.60000000149,2279.800000000745,1669841308947,2279,HRV,HRV_0291,2022-11-30 20:53:50
18,"[{'imgObject': {}, 'id': 'grilled chicken strips', 'src': '/static/foodstim60/grilled chicken strips.jpg', 'key': 'u', 'origWidth': 410, 'origHeight': 411, 'width': 410, 'height': 411, 'widthPercent': 0.45, 'rescaleHeight': False, 'trialN': 18, 'loaded': True, 'loadedTime': 3872.900000002235, 'positionName': 'LEFT', 'positionCoords': [204.4, 154.5], 'bid': 9.95}, {'imgObject': {}, 'id': 'luckycharms', 'src': '/static/foodstim60/luckycharms.jpg', 'key': 'i', 'origWidth': 410, 'origHeight': 409, 'width': 410, 'height': 409, 'widthPercent': 0.45, 'rescaleHeight': False, 'trialN': 18, 'loaded': True, 'loadedTime': 3876.2000000029802, 'positionName': 'RIGHT', 'positionCoords': [665.6, 155.5], 'bid': 4.28}]",37876.900000002235,1669841308948,grilled chicken strips,luckycharms,9.95,4.28,-5.669999999999999,grilled chicken strips,1157.199999999255,1159,1158.699999999255,True,u,39540.300000000745,1663.3999999985099,1669841310611,1663,HRV,HRV_0291,2022-11-30 20:53:50
19,"[{'imgObject': {}, 'id': 'avocado', 'src': '/static/foodstim60/avocado.jpg', 'key': 'u', 'origWidth': 409, 'origHeight': 409, 'width': 409, 'height': 409, 'widthPercent': 0.45, 'rescaleHeight': False, 'trialN': 19, 'loaded': True, 'loadedTime': 3867.60000000149, 'positionName': 'LEFT', 'positionCoords': [205.4, 155.5], 'bid': 0.03}, {'imgObject': {}, 'id': 'edamame', 'src': '/static/foodstim60/edamame.jpg', 'key': 'i', 'origWidth': 409, 'origHeight': 410, 'width': 409, 'height': 410, 'widthPercent': 0.45, 'rescaleHeight': False, 'trialN': 19, 'loaded': True, 'loadedTime': 3877.300000000745, 'positionName': 'RIGHT', 'positionCoords': [665.6, 155], 'bid': 1.67}]",39540.5,1669841310611,avocado,edamame,0.03,1.67,1.64,edamame,1544.6000000014901,1547,1546.1000000014901,True,i,41588.300000000745,2047.800000000745,1669841312659,2048,HRV,HRV_0291,2022-11-30 20:53:50
20,"[{'imgObject': {}, 'id': 'apple slices', 'src': '/static/foodstim60/apple slices.jpg', 'key': 'u', 'origWidth': 409, 'origHeight': 410, 'width': 409, 'height': 410, 'widthPercent': 0.45, 'rescaleHeight': False, 'trialN': 20, 'loaded': True, 'loadedTime': 3877.5, 'positionName': 'LEFT', 'positionCoords': [205.4, 155], 'bid': 4.79}, {'imgObject': {}, 'id': 'froot loops w milk', 'src': '/static/foodstim60/froot loops w milk.jpg', 'key': 'i', 'origWidth': 410, 'origHeight': 410, 'width': 410, 'height': 410, 'widthPercent': 0.45, 'rescaleHeight': False, 'trialN': 20, 'loaded': True, 'loadedTime': 3859.10000000149, 'positionName': 'RIGHT', 'positionCoords': [665.6, 155], 'bid': 5.82}]",41588.60000000149,1669841312659,apple slices,froot loops w milk,4.79,5.82,1.0300000000000002,froot loops w milk,1120.5,1123,1122.699999999255,True,i,43212.300000000745,1623.699999999255,1669841314283,1624,HRV,HRV_0291,2022-11-30 20:53:50
21,"[{'imgObject': {}, 'id': 'veggieswithdip', 'src': '/static/foodstim60/veggieswithdip.jpg', 'key': 'u', 'origWidth': 409, 'origHeight': 409, 'width': 409, 'height': 409, 'widthPercent': 0.45, 'rescaleHeight': False, 'trialN': 21, 'loaded': True, 'loadedTime': 3878.300000000745, 'positionName': 'LEFT', 'positionCoords': [205.4, 155.5], 'bid': 0.39}, {'imgObject': {}, 'id': 'raspberries', 'src': '/static/foodstim60/raspberries.jpg', 'key': 'i', 'origWidth': 411, 'origHeight': 411, 'width': 411, 'height': 411, 'widthPercent': 0.45, 'rescaleHeight': False, 'trialN': 21, 'loaded': True, 'loadedTime': 3879.800000000745, 'positionName': 'RIGHT', 'positionCoords': [665.6, 154.5], 'bid': 3.54}]",43212.300000000745,1669841314283,veggieswithdip,raspberries,0.39,3.54,3.15,raspberries,2293.800000000745,2296,2295.5,True,i,46012.5,2800.199999999255,1669841317083,2800,HRV,HRV_0291,2022-11-30 20:53:50
22,"[{'imgObject': {}, 'id': 'olives', 'src': '/static/foodstim60/olives.jpg', 'key': 'u', 'origWidth': 410, 'origHeight': 410, 'width': 410, 'height': 410, 'widthPercent': 0.45, 'rescaleHeight': False, 'trialN': 22, 'loaded': True, 'loadedTime': 3835.5, 'positionName': 'LEFT', 'positionCoords': [204.4, 155], 'bid': 0.35}, {'imgObject': {}, 'id': 'edamame', 'src': '/static/foodstim60/edamame.jpg', 'key': 'i', 'origWidth': 409, 'origHeight': 410, 'width': 409, 'height': 410, 'widthPercent': 0.45, 'rescaleHeight': False, 'trialN': 22, 'loaded': True, 'loadedTime': 3876.7000000029802, 'positionName': 'RIGHT', 'positionCoords': [665.6, 155], 'bid': 1.67}]",46012.800000000745,1669841317084,olives,edamame,0.35,1.67,1.3199999999999998,olives,1654.300000000745,1655,1655.800000000745,True,u,48172.5,2159.699999999255,1669841319243,2159,HRV,HRV_0291,2022-11-30 20:53:50
23,"[{'imgObject': {}, 'id': 'rigatoni and sauce', 'src': '/static/foodstim60/rigatoni and sauce.jpg', 'key': 'u', 'origWidth': 410, 'origHeight': 411, 'width': 410, 'height': 411, 'widthPercent': 0.45, 'rescaleHeight': False, 'trialN': 23, 'loaded': True, 'loadedTime': 3814.7000000029802, 'positionName': 'LEFT', 'positionCoords': [204.4, 154.5], 'bid': 6.79}, {'imgObject': {}, 'id': 'rigatoni', 'src': '/static/foodstim60/rigatoni.jpg', 'key': 'i', 'origWidth': 411, 'origHeight': 411, 'width': 411, 'height': 411, 'widthPercent': 0.45, 'rescaleHeight': False, 'trialN': 23, 'loaded': True, 'loadedTime': 3880.5, 'positionName': 'RIGHT', 'positionCoords': [665.6, 154.5], 'bid': 6.37}]",48172.70000000298,1669841319244,rigatoni and sauce,rigatoni,6.79,6.37,-0.41999999999999993,rigatoni and sauce,1358.3999999985099,1360,1359.8999999985099,True,u,50036.400000002235,1863.699999999255,1669841321107,1863,HRV,HRV_0291,2022-11-30 20:53:50
24,"[{'imgObject': {}, 'id': 'sushi w_condiments', 'src': '/static/foodstim60/sushi w_condiments.jpg', 'key': 'u', 'origWidth': 410, 'origHeight': 410, 'width': 410, 'height': 410, 'widthPercent': 0.45, 'rescaleHeight': False, 'trialN': 24, 'loaded': True, 'loadedTime': 3880.900000002235, 'positionName': 'LEFT', 'positionCoords': [204.4, 155], 'bid': 4.2}, {'imgObject': {}, 'id': 'hashbrowns', 'src': '/static/foodstim60/hashbrowns.jpg', 'key': 'i', 'origWidth': 411, 'origHeight': 410, 'width': 411, 'height': 410, 'widthPercent': 0.45, 'rescaleHeight': False, 'trialN': 24, 'loaded': True, 'loadedTime': 3881.400000002235, 'positionName': 'RIGHT', 'positionCoords': [665.6, 155], 'bid': 1.64}]",50036.70000000298,1669841321108,sushi w_condiments,hashbrowns,4.2,1.64,-2.5600000000000005,sushi w_condiments,1597.3999999985099,1599,1599.0,True,u,52140.5,2103.7999999970198,1669841323211,2103,HRV,HRV_0291,2022-11-30 20:53:50
25,"[{'imgObject': {}, 'id': 'apple slices', 'src': '/static/foodstim60/apple slices.jpg', 'key': 'u', 'origWidth': 409, 'origHeight': 410, 'width': 409, 'height': 410, 'widthPercent': 0.45, 'rescaleHeight': False, 'trialN': 25, 'loaded': True, 'loadedTime': 3877.800000000745, 'positionName': 'LEFT', 'positionCoords': [205.4, 155], 'bid': 4.79}, {'imgObject': {}, 'id': 'strawberries', 'src': '/static/foodstim60/strawberries.jpg', 'key': 'i', 'origWidth': 410, 'origHeight': 410, 'width': 410, 'height': 410, 'widthPercent': 0.45, 'rescaleHeight': False, 'trialN': 25, 'loaded': True, 'loadedTime': 3836.300000000745, 'positionName': 'RIGHT', 'positionCoords': [665.6, 155], 'bid': 4.96}]",52140.800000000745,1669841323212,apple slices,strawberries,4.79,4.96,0.16999999999999993,apple slices,2294.300000000745,2296,2296.5,True,u,54940.400000002235,2799.60000000149,1669841326011,2799,HRV,HRV_0291,2022-11-30 20:53:50
26,"[{'imgObject': {}, 'id': 'popsicles', 'src': '/static/foodstim60/popsicles.jpg', 'key': 'u', 'origWidth': 410, 'origHeight': 410, 'width': 410, 'height': 410, 'widthPercent': 0.45, 'rescaleHeight': False, 'trialN': 26, 'loaded': True, 'loadedTime': 3881.900000002235, 'positionName': 'LEFT', 'positionCoords': [204.4, 155], 'bid': 4.18}, {'imgObject': {}, 'id': 'eggsalad', 'src': '/static/foodstim60/eggsalad.jpg', 'key': 'i', 'origWidth': 410, 'origHeight': 409, 'width': 410, 'height': 409, 'widthPercent': 0.45, 'rescaleHeight': False, 'trialN': 26, 'loaded': True, 'loadedTime': 3881.900000002235, 'positionName': 'RIGHT', 'positionCoords': [665.6, 155.5], 'bid': 0.73}]",54940.60000000149,1669841326012,popsicles,eggsalad,4.18,0.73,-3.4499999999999997,popsicles,1874.5,1875,1875.699999999255,True,u,57324.400000002235,2383.800000000745,1669841328395,2383,HRV,HRV_0291,2022-11-30 20:53:50
27,"[{'imgObject': {}, 'id': 'roastedpotatoes', 'src': '/static/foodstim60/roastedpotatoes.jpg', 'key': 'u', 'origWidth': 409, 'origHeight': 410, 'width': 409, 'height': 410, 'widthPercent': 0.45, 'rescaleHeight': False, 'trialN': 27, 'loaded': True, 'loadedTime': 3882.800000000745, 'positionName': 'LEFT', 'positionCoords': [205.4, 155], 'bid': 9.32}, {'imgObject': {}, 'id': 'turkey sandwich', 'src': '/static/foodstim60/turkey sandwich.jpg', 'key': 'i', 'origWidth': 409, 'origHeight': 409, 'width': 409, 'height': 409, 'widthPercent': 0.45, 'rescaleHeight': False, 'trialN': 27, 'loaded': True, 'loadedTime': 3883.300000000745, 'positionName': 'RIGHT', 'positionCoords': [665.6, 155.5], 'bid': 10}]",57324.70000000298,1669841328396,roastedpotatoes,turkey sandwich,9.32,10.0,0.6799999999999997,turkey sandwich,1514.3999999985099,1515,1515.5,True,i,59348.5,2023.7999999970198,1669841330419,2023,HRV,HRV_0291,2022-11-30 20:53:50
28,"[{'imgObject': {}, 'id': 'banana', 'src': '/static/foodstim60/banana.jpg', 'key': 'u', 'origWidth': 410, 'origHeight': 410, 'width': 410, 'height': 410, 'widthPercent': 0.45, 'rescaleHeight': False, 'trialN': 28, 'loaded': True, 'loadedTime': 3883.60000000149, 'positionName': 'LEFT', 'positionCoords': [204.4, 155], 'bid': 4.03}, {'imgObject': {}, 'id': 'roastedpotatoes', 'src': '/static/foodstim60/roastedpotatoes.jpg', 'key': 'i', 'origWidth': 409, 'origHeight': 410, 'width': 409, 'height': 410, 'widthPercent': 0.45, 'rescaleHeight': False, 'trialN': 28, 'loaded': True, 'loadedTime': 3882.7000000029802, 'positionName': 'RIGHT', 'positionCoords': [665.6, 155], 'bid': 9.32}]",59348.800000000745,1669841330420,banana,roastedpotatoes,4.03,9.32,5.29,roastedpotatoes,1151.300000000745,1153,1153.1000000014901,True,i,61004.400000002235,1655.6000000014901,1669841332075,1655,HRV,HRV_0291,2022-11-30 20:53:50
29,"[{'imgObject': {}, 'id': 'Grapes', 'src': '/static/foodstim60/Grapes.jpg', 'key': 'u', 'origWidth': 411, 'origHeight': 411, 'width': 411, 'height': 411, 'widthPercent': 0.45, 'rescaleHeight': False, 'trialN': 29, 'loaded': True, 'loadedTime': 3872.2000000029802, 'positionName': 'LEFT', 'positionCoords': [203.4, 154.5], 'bid': 2.87}, {'imgObject': {}, 'id': 'sweetpotato', 'src': '/static/foodstim60/sweetpotato.jpg', 'key': 'i', 'origWidth': 410, 'origHeight': 410, 'width': 410, 'height': 410, 'widthPercent': 0.45, 'rescaleHeight': False, 'trialN': 29, 'loaded': True, 'loadedTime': 3793.7000000029802, 'positionName': 'RIGHT', 'positionCoords': [665.6, 155], 'bid': 0.04}]",61004.70000000298,1669841332076,Grapes,sweetpotato,2.87,0.04,-2.83,Grapes,1243.3999999985099,1245,1244.8999999985099,True,u,62756.20000000298,1751.5,1669841333827,1751,HRV,HRV_0291,2022-11-30 20:53:50
30,"[{'imgObject': {}, 'id': 'mango', 'src': '/static/foodstim60/mango.jpg', 'key': 'u', 'origWidth': 411, 'origHeight': 411, 'width': 411, 'height': 411, 'widthPercent': 0.45, 'rescaleHeight': False, 'trialN': 30, 'loaded': True, 'loadedTime': 3821.900000002235, 'positionName': 'LEFT', 'positionCoords': [203.4, 154.5], 'bid': 0.62}, {'imgObject': {}, 'id': 'cheerios', 'src': '/static/foodstim60/cheerios.jpg', 'key': 'i', 'origWidth': 409, 'origHeight': 410, 'width': 409, 'height': 410, 'widthPercent': 0.45, 'rescaleHeight': False, 'trialN': 30, 'loaded': True, 'loadedTime': 3884.10000000149, 'positionName': 'RIGHT', 'positionCoords': [665.6, 155], 'bid': 6.5600000000000005}]",62756.300000000745,1669841333827,mango,cheerios,0.62,6.5600000000000005,5.94,cheerios,1016.8000000007451,1019,1018.4000000022352,True,i,64276.5,1520.199999999255,1669841335347,1520,HRV,HRV_0291,2022-11-30 20:53:50
31,"[{'imgObject': {}, 'id': 'mac & cheese', 'src': '/static/foodstim60/mac & cheese.jpg', 'key': 'u', 'origWidth': 410, 'origHeight': 410, 'width': 410, 'height': 410, 'widthPercent': 0.45, 'rescaleHeight': False, 'trialN': 31, 'loaded': True, 'loadedTime': 3829.800000000745, 'positionName': 'LEFT', 'positionCoords': [204.4, 155], 'bid': 7.31}, {'imgObject': {}, 'id': 'strawberries', 'src': '/static/foodstim60/strawberries.jpg', 'key': 'i', 'origWidth': 410, 'origHeight': 410, 'width': 410, 'height': 410, 'widthPercent': 0.45, 'rescaleHeight': False, 'trialN': 31, 'loaded': True, 'loadedTime': 3836.900000002235, 'positionName': 'RIGHT', 'positionCoords': [665.6, 155], 'bid': 4.96}]",64276.70000000298,1669841335348,mac & cheese,strawberries,7.31,4.96,-2.3499999999999996,mac & cheese,1179.3999999985099,1181,1181.5,True,u,65964.20000000298,1687.5,1669841337035,1687,HRV,HRV_0291,2022-11-30 20:53:50
32,"[{'imgObject': {}, 'id': 'veggieswithdip', 'src': '/static/foodstim60/veggieswithdip.jpg', 'key': 'u', 'origWidth': 409, 'origHeight': 409, 'width': 409, 'height': 409, 'widthPercent': 0.45, 'rescaleHeight': False, 'trialN': 32, 'loaded': True, 'loadedTime': 3878.900000002235, 'positionName': 'LEFT', 'positionCoords': [205.4, 155.5], 'bid': 0.39}, {'imgObject': {}, 'id': 'kiwi', 'src': '/static/foodstim60/kiwi.jpg', 'key': 'i', 'origWidth': 410, 'origHeight': 410, 'width': 410, 'height': 410, 'widthPercent': 0.45, 'rescaleHeight': False, 'trialN': 32, 'loaded': True, 'loadedTime': 3834.400000002235, 'positionName': 'RIGHT', 'positionCoords': [665.6, 155], 'bid': 0.2}]",65964.30000000075,1669841337035,veggieswithdip,kiwi,0.39,0.2,-0.19,veggieswithdip,1638.800000000745,1641,1640.300000000745,True,u,68108.5,2144.199999999255,1669841339179,2144,HRV,HRV_0291,2022-11-30 20:53:50
33,"[{'imgObject': {}, 'id': 'cherries', 'src': '/static/foodstim60/cherries.jpg', 'key': 'u', 'origWidth': 410, 'origHeight': 411, 'width': 410, 'height': 411, 'widthPercent': 0.45, 'rescaleHeight': False, 'trialN': 33, 'loaded': True, 'loadedTime': 3786, 'positionName': 'LEFT', 'positionCoords': [204.4, 154.5], 'bid': 1.85}, {'imgObject': {}, 'id': 'blueberries', 'src': '/static/foodstim60/blueberries.jpg', 'key': 'i', 'origWidth': 411, 'origHeight': 411, 'width': 411, 'height': 411, 'widthPercent': 0.45, 'rescaleHeight': False, 'trialN': 33, 'loaded': True, 'loadedTime': 3884.5, 'positionName': 'RIGHT', 'positionCoords': [665.6, 154.5], 'bid': 1.68}]",68108.70000000298,1669841339180,cherries,blueberries,1.85,1.68,-0.17000000000000015,blueberries,2277.39999999851,2279,2279.099999997765,True,i,70892.5,2783.7999999970198,1669841341963,2783,HRV,HRV_0291,2022-11-30 20:53:50
34,"[{'imgObject': {}, 'id': 'lox', 'src': '/static/foodstim60/lox.jpg', 'key': 'u', 'origWidth': 410, 'origHeight': 411, 'width': 410, 'height': 411, 'widthPercent': 0.45, 'rescaleHeight': False, 'trialN': 34, 'loaded': True, 'loadedTime': 3885.300000000745, 'positionName': 'LEFT', 'positionCoords': [204.4, 154.5], 'bid': 5.5600000000000005}, {'imgObject': {}, 'id': 'fried eggs', 'src': '/static/foodstim60/fried eggs.jpg', 'key': 'i', 'origWidth': 410, 'origHeight': 410, 'width': 410, 'height': 410, 'widthPercent': 0.45, 'rescaleHeight': False, 'trialN': 34, 'loaded': True, 'loadedTime': 3885.7000000029802, 'positionName': 'RIGHT', 'positionCoords': [665.6, 155], 'bid': 8.4}]",70892.70000000298,1669841341964,lox,fried eggs,5.5600000000000005,8.4,2.84,fried eggs,1057.3999999985099,1058,1058.699999999255,True,i,72452.5,1559.7999999970198,1669841343523,1559,HRV,HRV_0291,2022-11-30 20:53:50
35,"[{'imgObject': {}, 'id': 'burger', 'src': '/static/foodstim60/burger.jpg', 'key': 'u', 'origWidth': 409, 'origHeight': 409, 'width': 409, 'height': 409, 'widthPercent': 0.45, 'rescaleHeight': False, 'trialN': 35, 'loaded': True, 'loadedTime': 3868.10000000149, 'positionName': 'LEFT', 'positionCoords': [205.4, 155.5], 'bid': 8.71}, {'imgObject': {}, 'id': 'chickenfingers', 'src': '/static/foodstim60/chickenfingers.jpg', 'key': 'i', 'origWidth': 410, 'origHeight': 410, 'width': 410, 'height': 410, 'widthPercent': 0.45, 'rescaleHeight': False, 'trialN': 35, 'loaded': True, 'loadedTime': 3830.7000000029802, 'positionName': 'RIGHT', 'positionCoords': [665.6, 155], 'bid': 9.87}]",72452.80000000075,1669841343524,burger,chickenfingers,8.71,9.87,1.1599999999999984,chickenfingers,939.3000000007451,941,941.1000000014901,True,i,73900.20000000298,1447.4000000022352,1669841344971,1447,HRV,HRV_0291,2022-11-30 20:53:50
36,"[{'imgObject': {}, 'id': 'turkey sandwich', 'src': '/static/foodstim60/turkey sandwich.jpg', 'key': 'u', 'origWidth': 409, 'origHeight': 409, 'width': 409, 'height': 409, 'widthPercent': 0.45, 'rescaleHeight': False, 'trialN': 36, 'loaded': True, 'loadedTime': 3883.300000000745, 'positionName': 'LEFT', 'positionCoords': [205.4, 155.5], 'bid': 10}, {'imgObject': {}, 'id': 'chickenfingers', 'src': '/static/foodstim60/chickenfingers.jpg', 'key': 'i', 'origWidth': 410, 'origHeight': 410, 'width': 410, 'height': 410, 'widthPercent': 0.45, 'rescaleHeight': False, 'trialN': 36, 'loaded': True, 'loadedTime': 3831.7000000029802, 'positionName': 'RIGHT', 'positionCoords': [665.6, 155], 'bid': 9.87}]",73900.30000000075,1669841344971,turkey sandwich,chickenfingers,10.0,9.87,-0.13000000000000078,turkey sandwich,1792.800000000745,1795,1795.0,True,u,76196.30000000075,2296.0,1669841347267,2296,HRV,HRV_0291,2022-11-30 20:53:50
37,"[{'imgObject': {}, 'id': 'cocktailshrimp', 'src': '/static/foodstim60/cocktailshrimp.jpg', 'key': 'u', 'origWidth': 410, 'origHeight': 410, 'width': 410, 'height': 410, 'widthPercent': 0.45, 'rescaleHeight': False, 'trialN': 37, 'loaded': True, 'loadedTime': 3793.60000000149, 'positionName': 'LEFT', 'positionCoords': [204.4, 155], 'bid': 0.03}, {'imgObject': {}, 'id': 'pear', 'src': '/static/foodstim60/pear.jpg', 'key': 'i', 'origWidth': 411, 'origHeight': 410, 'width': 411, 'height': 410, 'widthPercent': 0.45, 'rescaleHeight': False, 'trialN': 37, 'loaded': True, 'loadedTime': 3886.10000000149, 'positionName': 'RIGHT', 'positionCoords': [665.6, 155], 'bid': 2.06}]",76196.30000000075,1669841347267,cocktailshrimp,pear,0.03,2.06,2.0300000000000002,pear,1360.800000000745,1363,1362.300000000745,True,i,78060.40000000224,1864.1000000014901,1669841349131,1864,HRV,HRV_0291,2022-11-30 20:53:50
38,"[{'imgObject': {}, 'id': 'banana', 'src': '/static/foodstim60/banana.jpg', 'key': 'u', 'origWidth': 410, 'origHeight': 410, 'width': 410, 'height': 410, 'widthPercent': 0.45, 'rescaleHeight': False, 'trialN': 38, 'loaded': True, 'loadedTime': 3883.7000000029802, 'positionName': 'LEFT', 'positionCoords': [204.4, 155], 'bid': 4.03}, {'imgObject': {}, 'id': 'bagel plain', 'src': '/static/foodstim60/bagel plain.jpg', 'key': 'i', 'origWidth': 410, 'origHeight': 410, 'width': 410, 'height': 410, 'widthPercent': 0.45, 'rescaleHeight': False, 'trialN': 38, 'loaded': True, 'loadedTime': 3863.5, 'positionName': 'RIGHT', 'positionCoords': [665.6, 155], 'bid': 5.0600000000000005}]",78060.60000000149,1669841349132,banana,bagel plain,4.03,5.0600000000000005,1.0300000000000002,bagel plain,1031.5,1033,1033.300000000745,True,i,79596.5,1535.8999999985099,1669841350667,1535,HRV,HRV_0291,2022-11-30 20:53:50
39,"[{'imgObject': {}, 'id': 'eggsalad', 'src': '/static/foodstim60/eggsalad.jpg', 'key': 'u', 'origWidth': 410, 'origHeight': 409, 'width': 410, 'height': 409, 'widthPercent': 0.45, 'rescaleHeight': False, 'trialN': 39, 'loaded': True, 'loadedTime': 3882.2000000029802, 'positionName': 'LEFT', 'positionCoords': [204.4, 155.5], 'bid': 0.73}, {'imgObject': {}, 'id': 'rigatoni and sauce', 'src': '/static/foodstim60/rigatoni and sauce.jpg', 'key': 'i', 'origWidth': 410, 'origHeight': 411, 'width': 410, 'height': 411, 'widthPercent': 0.45, 'rescaleHeight': False, 'trialN': 39, 'loaded': True, 'loadedTime': 3814.2000000029802, 'positionName': 'RIGHT', 'positionCoords': [665.6, 154.5], 'bid': 6.79}]",79596.70000000298,1669841350668,eggsalad,rigatoni and sauce,0.73,6.79,6.0600000000000005,rigatoni and sauce,766.3999999985099,768,768.0999999977648,True,i,80868.5,1271.7999999970198,1669841351939,1271,HRV,HRV_0291,2022-11-30 20:53:50
40,"[{'imgObject': {}, 'id': 'hotdog w must', 'src': '/static/foodstim60/hotdog w must.jpg', 'key': 'u', 'origWidth': 409, 'origHeight': 409, 'width': 409, 'height': 409, 'widthPercent': 0.45, 'rescaleHeight': False, 'trialN': 40, 'loaded': True, 'loadedTime': 3867.7000000029802, 'positionName': 'LEFT', 'positionCoords': [205.4, 155.5], 'bid': 7.28}, {'imgObject': {}, 'id': 'mac & cheese', 'src': '/static/foodstim60/mac & cheese.jpg', 'key': 'i', 'origWidth': 410, 'origHeight': 410, 'width': 410, 'height': 410, 'widthPercent': 0.45, 'rescaleHeight': False, 'trialN': 40, 'loaded': True, 'loadedTime': 3830, 'positionName': 'RIGHT', 'positionCoords': [665.6, 155], 'bid': 7.31}]",80868.70000000298,1669841351940,hotdog w must,mac & cheese,7.28,7.31,0.02999999999999936,hotdog w must,1496.3999999985099,1498,1498.0999999977648,True,u,82868.40000000224,1999.699999999255,1669841353939,1999,HRV,HRV_0291,2022-11-30 20:53:50
41,"[{'imgObject': {}, 'id': 'cherry tomato', 'src': '/static/foodstim60/cherry tomato.jpg', 'key': 'u', 'origWidth': 410, 'origHeight': 410, 'width': 410, 'height': 410, 'widthPercent': 0.45, 'rescaleHeight': False, 'trialN': 41, 'loaded': True, 'loadedTime': 3835.60000000149, 'positionName': 'LEFT', 'positionCoords': [204.4, 155], 'bid': 5.01}, {'imgObject': {}, 'id': 'raspberries', 'src': '/static/foodstim60/raspberries.jpg', 'key': 'i', 'origWidth': 411, 'origHeight': 411, 'width': 411, 'height': 411, 'widthPercent': 0.45, 'rescaleHeight': False, 'trialN': 41, 'loaded': True, 'loadedTime': 3879.900000002235, 'positionName': 'RIGHT', 'positionCoords': [665.6, 154.5], 'bid': 3.54}]",82868.60000000149,1669841353940,cherry tomato,raspberries,5.01,3.54,-1.4699999999999998,cherry tomato,1343.5,1345,1345.0,True,u,84716.60000000149,1848.0,1669841355787,1847,HRV,HRV_0291,2022-11-30 20:53:50
42,"[{'imgObject': {}, 'id': 'tacos', 'src': '/static/foodstim60/tacos.jpg', 'key': 'u', 'origWidth': 411, 'origHeight': 411, 'width': 411, 'height': 411, 'widthPercent': 0.45, 'rescaleHeight': False, 'trialN': 42, 'loaded': True, 'loadedTime': 3807.60000000149, 'positionName': 'LEFT', 'positionCoords': [203.4, 154.5], 'bid': 9.59}, {'imgObject': {}, 'id': 'popsicles', 'src': '/static/foodstim60/popsicles.jpg', 'key': 'i', 'origWidth': 410, 'origHeight': 410, 'width': 410, 'height': 410, 'widthPercent': 0.45, 'rescaleHeight': False, 'trialN': 42, 'loaded': True, 'loadedTime': 3881.900000002235, 'positionName': 'RIGHT', 'positionCoords': [665.6, 155], 'bid': 4.18}]",84716.80000000075,1669841355788,tacos,popsicles,9.59,4.18,-5.41,tacos,1234.300000000745,1236,1236.5,True,u,86460.5,1743.699999999255,1669841357531,1743,HRV,HRV_0291,2022-11-30 20:53:50
43,"[{'imgObject': {}, 'id': 'olives', 'src': '/static/foodstim60/olives.jpg', 'key': 'u', 'origWidth': 410, 'origHeight': 410, 'width': 410, 'height': 410, 'widthPercent': 0.45, 'rescaleHeight': False, 'trialN': 43, 'loaded': True, 'loadedTime': 3835.60000000149, 'positionName': 'LEFT', 'positionCoords': [204.4, 155], 'bid': 0.35}, {'imgObject': {}, 'id': 'shreddedwheatwithmilk', 'src': '/static/foodstim60/shreddedwheatwithmilk.jpg', 'key': 'i', 'origWidth': 410, 'origHeight': 410, 'width': 410, 'height': 410, 'widthPercent': 0.45, 'rescaleHeight': False, 'trialN': 43, 'loaded': True, 'loadedTime': 3790.300000000745, 'positionName': 'RIGHT', 'positionCoords': [665.6, 155], 'bid': 3.18}]",86460.80000000075,1669841357532,olives,shreddedwheatwithmilk,0.35,3.18,2.83,shreddedwheatwithmilk,1841.300000000745,1843,1842.9000000022352,True,i,88804.40000000224,2343.60000000149,1669841359875,2343,HRV,HRV_0291,2022-11-30 20:53:50
44,"[{'imgObject': {}, 'id': 'mango', 'src': '/static/foodstim60/mango.jpg', 'key': 'u', 'origWidth': 411, 'origHeight': 411, 'width': 411, 'height': 411, 'widthPercent': 0.45, 'rescaleHeight': False, 'trialN': 44, 'loaded': True, 'loadedTime': 3828, 'positionName': 'LEFT', 'positionCoords': [203.4, 154.5], 'bid': 0.62}, {'imgObject': {}, 'id': 'eggsalad', 'src': '/static/foodstim60/eggsalad.jpg', 'key': 'i', 'origWidth': 410, 'origHeight': 409, 'width': 410, 'height': 409, 'widthPercent': 0.45, 'rescaleHeight': False, 'trialN': 44, 'loaded': True, 'loadedTime': 3882.300000000745, 'positionName': 'RIGHT', 'positionCoords': [665.6, 155.5], 'bid': 0.73}]",88804.60000000149,1669841359876,mango,eggsalad,0.62,0.73,0.10999999999999999,eggsalad,1525.5,1527,1527.199999999255,True,i,90836.5,2031.8999999985099,1669841361907,2031,HRV,HRV_0291,2022-11-30 20:53:50
45,"[{'imgObject': {}, 'id': 'burger', 'src': '/static/foodstim60/burger.jpg', 'key': 'u', 'origWidth': 409, 'origHeight': 409, 'width': 409, 'height': 409, 'widthPercent': 0.45, 'rescaleHeight': False, 'trialN': 45, 'loaded': True, 'loadedTime': 3868.5, 'positionName': 'LEFT', 'positionCoords': [205.4, 155.5], 'bid': 8.71}, {'imgObject': {}, 'id': 'fried eggs', 'src': '/static/foodstim60/fried eggs.jpg', 'key': 'i', 'origWidth': 410, 'origHeight': 410, 'width': 410, 'height': 410, 'widthPercent': 0.45, 'rescaleHeight': False, 'trialN': 45, 'loaded': True, 'loadedTime': 3885.300000000745, 'positionName': 'RIGHT', 'positionCoords': [665.6, 155], 'bid': 8.4}]",90836.60000000149,1669841361908,burger,fried eggs,8.71,8.4,-0.3100000000000005,burger,1965.5,1967,1967.3999999985099,True,u,93308.5,2471.89999999851,1669841364379,2471,HRV,HRV_0291,2022-11-30 20:53:50
46,"[{'imgObject': {}, 'id': 'fried eggs', 'src': '/static/foodstim60/fried eggs.jpg', 'key': 'u', 'origWidth': 410, 'origHeight': 410, 'width': 410, 'height': 410, 'widthPercent': 0.45, 'rescaleHeight': False, 'trialN': 46, 'loaded': True, 'loadedTime': 3885.7000000029802, 'positionName': 'LEFT', 'positionCoords': [204.4, 155], 'bid': 8.4}, {'imgObject': {}, 'id': 'granola w milk', 'src': '/static/foodstim60/granola w milk.jpg', 'key': 'i', 'origWidth': 410, 'origHeight': 410, 'width': 410, 'height': 410, 'widthPercent': 0.45, 'rescaleHeight': False, 'trialN': 46, 'loaded': True, 'loadedTime': 3858.60000000149, 'positionName': 'RIGHT', 'positionCoords': [665.6, 155], 'bid': 3.01}]",93308.70000000298,1669841364380,fried eggs,granola w milk,8.4,3.01,-5.390000000000001,fried eggs,958.3999999985099,960,960.3999999985099,True,u,94772.40000000224,1463.699999999255,1669841365843,1463,HRV,HRV_0291,2022-11-30 20:53:50
47,"[{'imgObject': {}, 'id': 'mango', 'src': '/static/foodstim60/mango.jpg', 'key': 'u', 'origWidth': 411, 'origHeight': 411, 'width': 411, 'height': 411, 'widthPercent': 0.45, 'rescaleHeight': False, 'trialN': 47, 'loaded': True, 'loadedTime': 3827.800000000745, 'positionName': 'LEFT', 'positionCoords': [203.4, 154.5], 'bid': 0.62}, {'imgObject': {}, 'id': 'hashbrowns', 'src': '/static/foodstim60/hashbrowns.jpg', 'key': 'i', 'origWidth': 411, 'origHeight': 410, 'width': 411, 'height': 410, 'widthPercent': 0.45, 'rescaleHeight': False, 'trialN': 47, 'loaded': True, 'loadedTime': 3881.5, 'positionName': 'RIGHT', 'positionCoords': [665.6, 155], 'bid': 1.64}]",94772.70000000298,1669841365844,mango,hashbrowns,0.62,1.64,1.02,hashbrowns,1534.3999999985099,1536,1536.2999999970198,True,i,96812.40000000224,2039.699999999255,1669841367883,2039,HRV,HRV_0291,2022-11-30 20:53:50
48,"[{'imgObject': {}, 'id': 'salmon', 'src': '/static/foodstim60/salmon.jpg', 'key': 'u', 'origWidth': 410, 'origHeight': 409, 'width': 410, 'height': 409, 'widthPercent': 0.45, 'rescaleHeight': False, 'trialN': 48, 'loaded': True, 'loadedTime': 3886.5, 'positionName': 'LEFT', 'positionCoords': [204.4, 155.5], 'bid': 5.89}, {'imgObject': {}, 'id': 'ice cream sundae 002', 'src': '/static/foodstim60/ice cream sundae 002.jpg', 'key': 'i', 'origWidth': 409, 'origHeight': 409, 'width': 409, 'height': 409, 'widthPercent': 0.45, 'rescaleHeight': False, 'trialN': 48, 'loaded': True, 'loadedTime': 3887, 'positionName': 'RIGHT', 'positionCoords': [665.6, 155.5], 'bid': 4.84}]",96812.70000000298,1669841367884,salmon,ice cream sundae 002,5.89,4.84,-1.0499999999999998,ice cream sundae 002,1772.3999999985099,1774,1774.199999999255,True,i,99092.40000000224,2279.699999999255,1669841370163,2279,HRV,HRV_0291,2022-11-30 20:53:50
49,"[{'imgObject': {}, 'id': 'fried eggs', 'src': '/static/foodstim60/fried eggs.jpg', 'key': 'u', 'origWidth': 410, 'origHeight': 410, 'width': 410, 'height': 410, 'widthPercent': 0.45, 'rescaleHeight': False, 'trialN': 49, 'loaded': True, 'loadedTime': 3885.7000000029802, 'positionName': 'LEFT', 'positionCoords': [204.4, 155], 'bid': 8.4}, {'imgObject': {}, 'id': 'tacos', 'src': '/static/foodstim60/tacos.jpg', 'key': 'i', 'origWidth': 411, 'origHeight': 411, 'width': 411, 'height': 411, 'widthPercent': 0.45, 'rescaleHeight': False, 'trialN': 49, 'loaded': True, 'loadedTime': 3813.900000002235, 'positionName': 'RIGHT', 'positionCoords': [665.6, 154.5], 'bid': 9.59}]",99092.70000000298,1669841370164,fried eggs,tacos,8.4,9.59,1.1899999999999995,tacos,1482.3999999985099,1484,1484.199999999255,True,i,101084.5,1991.7999999970198,1669841372155,1991,HRV,HRV_0291,2022-11-30 20:53:50
50,"[{'imgObject': {}, 'id': 'pear', 'src': '/static/foodstim60/pear.jpg', 'key': 'u', 'origWidth': 411, 'origHeight': 410, 'width': 411, 'height': 410, 'widthPercent': 0.45, 'rescaleHeight': False, 'trialN': 50, 'loaded': True, 'loadedTime': 3886.10000000149, 'positionName': 'LEFT', 'positionCoords': [203.4, 155], 'bid': 2.06}, {'imgObject': {}, 'id': 'cherries', 'src': '/static/foodstim60/cherries.jpg', 'key': 'i', 'origWidth': 410, 'origHeight': 411, 'width': 410, 'height': 411, 'widthPercent': 0.45, 'rescaleHeight': False, 'trialN': 50, 'loaded': True, 'loadedTime': 3786, 'positionName': 'RIGHT', 'positionCoords': [665.6, 154.5], 'bid': 1.85}]",101084.70000000298,1669841372156,pear,cherries,2.06,1.85,-0.20999999999999996,pear,1728.3999999985099,1730,1730.0999999977648,True,u,103316.60000000149,2231.89999999851,1669841374387,2231,HRV,HRV_0291,2022-11-30 20:53:50
51,"[{'imgObject': {}, 'id': 'omelette', 'src': '/static/foodstim60/omelette.jpg', 'key': 'u', 'origWidth': 410, 'origHeight': 409, 'width': 410, 'height': 409, 'widthPercent': 0.45, 'rescaleHeight': False, 'trialN': 51, 'loaded': True, 'loadedTime': 3887.300000000745, 'positionName': 'LEFT', 'positionCoords': [204.4, 155.5], 'bid': 8.870000000000001}, {'imgObject': {}, 'id': 'baked potato', 'src': '/static/foodstim60/baked potato.jpg', 'key': 'i', 'origWidth': 409, 'origHeight': 410, 'width': 409, 'height': 410, 'widthPercent': 0.45, 'rescaleHeight': False, 'trialN': 51, 'loaded': True, 'loadedTime': 3853.7000000029802, 'positionName': 'RIGHT', 'positionCoords': [665.6, 155], 'bid': 7.0600000000000005}]",103316.90000000224,1669841374388,omelette,baked potato,8.870000000000001,7.0600000000000005,-1.8100000000000005,omelette,1776.199999999255,1778,1778.0,True,u,105596.40000000224,2279.5,1669841376667,2279,HRV,HRV_0291,2022-11-30 20:53:50
52,"[{'imgObject': {}, 'id': 'Tribe humus pita', 'src': '/static/foodstim60/Tribe humus pita.jpg', 'key': 'u', 'origWidth': 411, 'origHeight': 411, 'width': 411, 'height': 411, 'widthPercent': 0.45, 'rescaleHeight': False, 'trialN': 52, 'loaded': True, 'loadedTime': 3887.900000002235, 'positionName': 'LEFT', 'positionCoords': [203.4, 154.5], 'bid': 5.96}, {'imgObject': {}, 'id': 'cheerios', 'src': '/static/foodstim60/cheerios.jpg', 'key': 'i', 'origWidth': 409, 'origHeight': 410, 'width': 409, 'height': 410, 'widthPercent': 0.45, 'rescaleHeight': False, 'trialN': 52, 'loaded': True, 'loadedTime': 3883.7000000029802, 'positionName': 'RIGHT', 'positionCoords': [665.6, 155], 'bid': 6.5600000000000005}]",105596.60000000149,1669841376668,Tribe humus pita,cheerios,5.96,6.5600000000000005,0.6000000000000005,cheerios,1664.5,1666,1666.6000000014901,True,i,107764.5,2167.89999999851,1669841378835,2167,HRV,HRV_0291,2022-11-30 20:53:50
53,"[{'imgObject': {}, 'id': 'sushi w_condiments', 'src': '/static/foodstim60/sushi w_condiments.jpg', 'key': 'u', 'origWidth': 410, 'origHeight': 410, 'width': 410, 'height': 410, 'widthPercent': 0.45, 'rescaleHeight': False, 'trialN': 53, 'loaded': True, 'loadedTime': 3880.900000002235, 'positionName': 'LEFT', 'positionCoords': [204.4, 155], 'bid': 4.2}, {'imgObject': {}, 'id': 'chicken nuggets2', 'src': '/static/foodstim60/chicken nuggets2.jpg', 'key': 'i', 'origWidth': 410, 'origHeight': 409, 'width': 410, 'height': 409, 'widthPercent': 0.45, 'rescaleHeight': False, 'trialN': 53, 'loaded': True, 'loadedTime': 3799.900000002235, 'positionName': 'RIGHT', 'positionCoords': [665.6, 155.5], 'bid': 9.84}]",107764.70000000298,1669841378836,sushi w_condiments,chicken nuggets2,4.2,9.84,5.64,chicken nuggets2,902.3999999985099,904,904.2999999970198,True,i,109172.30000000075,1407.5999999977648,1669841380243,1407,HRV,HRV_0291,2022-11-30 20:53:50
54,"[{'imgObject': {}, 'id': 'corn cob', 'src': '/static/foodstim60/corn cob.jpg', 'key': 'u', 'origWidth': 411, 'origHeight': 411, 'width': 411, 'height': 411, 'widthPercent': 0.45, 'rescaleHeight': False, 'trialN': 54, 'loaded': True, 'loadedTime': 3888.300000000745, 'positionName': 'LEFT', 'positionCoords': [203.4, 154.5], 'bid': 7.12}, {'imgObject': {}, 'id': 'blueberries', 'src': '/static/foodstim60/blueberries.jpg', 'key': 'i', 'origWidth': 411, 'origHeight': 411, 'width': 411, 'height': 411, 'widthPercent': 0.45, 'rescaleHeight': False, 'trialN': 54, 'loaded': True, 'loadedTime': 3884.60000000149, 'positionName': 'RIGHT', 'positionCoords': [665.6, 154.5], 'bid': 1.68}]",109172.5,1669841380243,corn cob,blueberries,7.12,1.68,-5.44,corn cob,957.6000000014901,960,959.3000000007451,True,u,110636.60000000149,1464.1000000014901,1669841381707,1464,HRV,HRV_0291,2022-11-30 20:53:50
55,"[{'imgObject': {}, 'id': 'sweetpotato', 'src': '/static/foodstim60/sweetpotato.jpg', 'key': 'u', 'origWidth': 410, 'origHeight': 410, 'width': 410, 'height': 410, 'widthPercent': 0.45, 'rescaleHeight': False, 'trialN': 55, 'loaded': True, 'loadedTime': 3794.2000000029802, 'positionName': 'LEFT', 'positionCoords': [204.4, 155], 'bid': 0.04}, {'imgObject': {}, 'id': 'mango', 'src': '/static/foodstim60/mango.jpg', 'key': 'i', 'origWidth': 411, 'origHeight': 411, 'width': 411, 'height': 411, 'widthPercent': 0.45, 'rescaleHeight': False, 'trialN': 55, 'loaded': True, 'loadedTime': 3828, 'positionName': 'RIGHT', 'positionCoords': [665.6, 154.5], 'bid': 0.62}]",110636.80000000075,1669841381708,sweetpotato,mango,0.04,0.62,0.58,sweetpotato,1238.300000000745,1240,1240.0,True,u,112380.40000000224,1743.6000000014901,1669841383451,1743,HRV,HRV_0291,2022-11-30 20:53:50
56,"[{'imgObject': {}, 'id': 'popsicles', 'src': '/static/foodstim60/popsicles.jpg', 'key': 'u', 'origWidth': 410, 'origHeight': 410, 'width': 410, 'height': 410, 'widthPercent': 0.45, 'rescaleHeight': False, 'trialN': 56, 'loaded': True, 'loadedTime': 3881.800000000745, 'positionName': 'LEFT', 'positionCoords': [204.4, 155], 'bid': 4.18}, {'imgObject': {}, 'id': 'strawberries', 'src': '/static/foodstim60/strawberries.jpg', 'key': 'i', 'origWidth': 410, 'origHeight': 410, 'width': 410, 'height': 410, 'widthPercent': 0.45, 'rescaleHeight': False, 'trialN': 56, 'loaded': True, 'loadedTime': 3836.900000002235, 'positionName': 'RIGHT', 'positionCoords': [665.6, 155], 'bid': 4.96}]",112380.70000000298,1669841383452,popsicles,strawberries,4.18,4.96,0.7800000000000002,strawberries,1985.3999999985099,1987,1987.2999999970198,True,i,114868.20000000298,2487.5,1669841385939,2487,HRV,HRV_0291,2022-11-30 20:53:50
57,"[{'imgObject': {}, 'id': 'kiwi', 'src': '/static/foodstim60/kiwi.jpg', 'key': 'u', 'origWidth': 410, 'origHeight': 410, 'width': 410, 'height': 410, 'widthPercent': 0.45, 'rescaleHeight': False, 'trialN': 57, 'loaded': True, 'loadedTime': 3834.400000002235, 'positionName': 'LEFT', 'positionCoords': [204.4, 155], 'bid': 0.2}, {'imgObject': {}, 'id': 'froot loops w milk', 'src': '/static/foodstim60/froot loops w milk.jpg', 'key': 'i', 'origWidth': 410, 'origHeight': 410, 'width': 410, 'height': 410, 'widthPercent': 0.45, 'rescaleHeight': False, 'trialN': 57, 'loaded': True, 'loadedTime': 3863.10000000149, 'positionName': 'RIGHT', 'positionCoords': [665.6, 155], 'bid': 5.82}]",114868.30000000075,1669841385939,kiwi,froot loops w milk,0.2,5.82,5.62,froot loops w milk,867.8000000007451,870,869.8000000007451,True,i,116244.30000000075,1376.0,1669841387315,1376,HRV,HRV_0291,2022-11-30 20:53:50
58,"[{'imgObject': {}, 'id': 'salad w chicken', 'src': '/static/foodstim60/salad w chicken.jpg', 'key': 'u', 'origWidth': 411, 'origHeight': 411, 'width': 411, 'height': 411, 'widthPercent': 0.45, 'rescaleHeight': False, 'trialN': 58, 'loaded': True, 'loadedTime': 3888.900000002235, 'positionName': 'LEFT', 'positionCoords': [203.4, 154.5], 'bid': 8.25}, {'imgObject': {}, 'id': 'grilled chicken strips', 'src': '/static/foodstim60/grilled chicken strips.jpg', 'key': 'i', 'origWidth': 410, 'origHeight': 411, 'width': 410, 'height': 411, 'widthPercent': 0.45, 'rescaleHeight': False, 'trialN': 58, 'loaded': True, 'loadedTime': 3872.7000000029802, 'positionName': 'RIGHT', 'positionCoords': [665.6, 154.5], 'bid': 9.95}]",116244.40000000224,1669841387315,salad w chicken,grilled chicken strips,8.25,9.95,1.6999999999999993,salad w chicken,2017.699999999255,2021,2020.199999999255,True,u,118772.40000000224,2528.0,1669841389843,2528,HRV,HRV_0291,2022-11-30 20:53:50
59,"[{'imgObject': {}, 'id': 'eggsalad', 'src': '/static/foodstim60/eggsalad.jpg', 'key': 'u', 'origWidth': 410, 'origHeight': 409, 'width': 410, 'height': 409, 'widthPercent': 0.45, 'rescaleHeight': False, 'trialN': 59, 'loaded': True, 'loadedTime': 3882.300000000745, 'positionName': 'LEFT', 'positionCoords': [204.4, 155.5], 'bid': 0.73}, {'imgObject': {}, 'id': 'edamame', 'src': '/static/foodstim60/edamame.jpg', 'key': 'i', 'origWidth': 409, 'origHeight': 410, 'width': 409, 'height': 410, 'widthPercent': 0.45, 'rescaleHeight': False, 'trialN': 59, 'loaded': True, 'loadedTime': 3877.300000000745, 'positionName': 'RIGHT', 'positionCoords': [665.6, 155], 'bid': 1.67}]",118772.60000000149,1669841389844,eggsalad,edamame,0.73,1.67,0.94,eggsalad,2068.5,2070,2070.5,True,u,121348.5,2575.89999999851,1669841392419,2575,HRV,HRV_0291,2022-11-30 20:53:50
60,"[{'imgObject': {}, 'id': 'turkeysandwich', 'src': '/static/foodstim60/turkeysandwich.jpg', 'key': 'u', 'origWidth': 409, 'origHeight': 409, 'width': 409, 'height': 409, 'widthPercent': 0.45, 'rescaleHeight': False, 'trialN': 60, 'loaded': True, 'loadedTime': 3889, 'positionName': 'LEFT', 'positionCoords': [205.4, 155.5], 'bid': 9.54}, {'imgObject': {}, 'id': 'roastedpotatoes', 'src': '/static/foodstim60/roastedpotatoes.jpg', 'key': 'i', 'origWidth': 409, 'origHeight': 410, 'width': 409, 'height': 410, 'widthPercent': 0.45, 'rescaleHeight': False, 'trialN': 60, 'loaded': True, 'loadedTime': 3882.800000000745, 'positionName': 'RIGHT', 'positionCoords': [665.6, 155], 'bid': 9.32}]",121348.80000000075,1669841392420,turkeysandwich,roastedpotatoes,9.54,9.32,-0.21999999999999886,turkeysandwich,1520.300000000745,1522,1522.0,True,u,123372.5,2023.699999999255,1669841394443,2023,HRV,HRV_0291,2022-11-30 20:53:50
61,"[{'imgObject': {}, 'id': 'olives', 'src': '/static/foodstim60/olives.jpg', 'key': 'u', 'origWidth': 410, 'origHeight': 410, 'width': 410, 'height': 410, 'widthPercent': 0.45, 'rescaleHeight': False, 'trialN': 61, 'loaded': True, 'loadedTime': 3835.5, 'positionName': 'LEFT', 'positionCoords': [204.4, 155], 'bid': 0.35}, {'imgObject': {}, 'id': 'salmon', 'src': '/static/foodstim60/salmon.jpg', 'key': 'i', 'origWidth': 410, 'origHeight': 409, 'width': 410, 'height': 409, 'widthPercent': 0.45, 'rescaleHeight': False, 'trialN': 61, 'loaded': True, 'loadedTime': 3886.2000000029802, 'positionName': 'RIGHT', 'positionCoords': [665.6, 155.5], 'bid': 5.89}]",123372.90000000224,1669841394444,olives,salmon,0.35,5.89,5.54,salmon,1418.199999999255,1420,1420.0999999977648,True,i,125300.40000000224,1927.5,1669841396371,1927,HRV,HRV_0291,2022-11-30 20:53:50
62,"[{'imgObject': {}, 'id': 'cantaloupe', 'src': '/static/foodstim60/cantaloupe.jpg', 'key': 'u', 'origWidth': 409, 'origHeight': 409, 'width': 409, 'height': 409, 'widthPercent': 0.45, 'rescaleHeight': False, 'trialN': 62, 'loaded': True, 'loadedTime': 3889.800000000745, 'positionName': 'LEFT', 'positionCoords': [205.4, 155.5], 'bid': 0.04}, {'imgObject': {}, 'id': 'sweetpotato', 'src': '/static/foodstim60/sweetpotato.jpg', 'key': 'i', 'origWidth': 410, 'origHeight': 410, 'width': 410, 'height': 410, 'widthPercent': 0.45, 'rescaleHeight': False, 'trialN': 62, 'loaded': True, 'loadedTime': 3794.2000000029802, 'positionName': 'RIGHT', 'positionCoords': [665.6, 155], 'bid': 0.04}]",125300.70000000298,1669841396372,cantaloupe,sweetpotato,0.04,0.04,0.0,sweetpotato,1454.3999999985099,1456,1456.199999999255,True,i,127260.5,1959.7999999970198,1669841398331,1959,HRV,HRV_0291,2022-11-30 20:53:50
63,"[{'imgObject': {}, 'id': 'pear', 'src': '/static/foodstim60/pear.jpg', 'key': 'u', 'origWidth': 411, 'origHeight': 410, 'width': 411, 'height': 410, 'widthPercent': 0.45, 'rescaleHeight': False, 'trialN': 63, 'loaded': True, 'loadedTime': 3886.2000000029802, 'positionName': 'LEFT', 'positionCoords': [203.4, 155], 'bid': 2.06}, {'imgObject': {}, 'id': 'raspberries', 'src': '/static/foodstim60/raspberries.jpg', 'key': 'i', 'origWidth': 411, 'origHeight': 411, 'width': 411, 'height': 411, 'widthPercent': 0.45, 'rescaleHeight': False, 'trialN': 63, 'loaded': True, 'loadedTime': 3879.900000002235, 'positionName': 'RIGHT', 'positionCoords': [665.6, 154.5], 'bid': 3.54}]",127260.70000000298,1669841398332,pear,raspberries,2.06,3.54,1.48,raspberries,2431.39999999851,2433,2433.89999999851,True,i,130196.40000000224,2935.699999999255,1669841401267,2935,HRV,HRV_0291,2022-11-30 20:53:50
64,"[{'imgObject': {}, 'id': 'salmon', 'src': '/static/foodstim60/salmon.jpg', 'key': 'u', 'origWidth': 410, 'origHeight': 409, 'width': 410, 'height': 409, 'widthPercent': 0.45, 'rescaleHeight': False, 'trialN': 64, 'loaded': True, 'loadedTime': 3886.60000000149, 'positionName': 'LEFT', 'positionCoords': [204.4, 155.5], 'bid': 5.89}, {'imgObject': {}, 'id': 'froot loops w milk', 'src': '/static/foodstim60/froot loops w milk.jpg', 'key': 'i', 'origWidth': 410, 'origHeight': 410, 'width': 410, 'height': 410, 'widthPercent': 0.45, 'rescaleHeight': False, 'trialN': 64, 'loaded': True, 'loadedTime': 3863.10000000149, 'positionName': 'RIGHT', 'positionCoords': [665.6, 155], 'bid': 5.82}]",130196.60000000149,1669841401268,salmon,froot loops w milk,5.89,5.82,-0.0699999999999994,froot loops w milk,1528.5,1529,1529.800000000745,True,i,132228.5,2031.8999999985099,1669841403299,2031,HRV,HRV_0291,2022-11-30 20:53:50
65,"[{'imgObject': {}, 'id': 'granola w milk', 'src': '/static/foodstim60/granola w milk.jpg', 'key': 'u', 'origWidth': 410, 'origHeight': 410, 'width': 410, 'height': 410, 'widthPercent': 0.45, 'rescaleHeight': False, 'trialN': 65, 'loaded': True, 'loadedTime': 3859.10000000149, 'positionName': 'LEFT', 'positionCoords': [204.4, 155], 'bid': 3.01}, {'imgObject': {}, 'id': 'mango', 'src': '/static/foodstim60/mango.jpg', 'key': 'i', 'origWidth': 411, 'origHeight': 411, 'width': 411, 'height': 411, 'widthPercent': 0.45, 'rescaleHeight': False, 'trialN': 65, 'loaded': True, 'loadedTime': 3821.400000002235, 'positionName': 'RIGHT', 'positionCoords': [665.6, 154.5], 'bid': 0.62}]",132228.70000000298,1669841403300,granola w milk,mango,3.01,0.62,-2.3899999999999997,granola w milk,1714.3999999985099,1715,1715.7999999970198,True,u,134452.5,2223.7999999970198,1669841405523,2223,HRV,HRV_0291,2022-11-30 20:53:50
66,"[{'imgObject': {}, 'id': 'hashbrowns', 'src': '/static/foodstim60/hashbrowns.jpg', 'key': 'u', 'origWidth': 411, 'origHeight': 410, 'width': 411, 'height': 410, 'widthPercent': 0.45, 'rescaleHeight': False, 'trialN': 66, 'loaded': True, 'loadedTime': 3881, 'positionName': 'LEFT', 'positionCoords': [203.4, 155], 'bid': 1.64}, {'imgObject': {}, 'id': 'edamame', 'src': '/static/foodstim60/edamame.jpg', 'key': 'i', 'origWidth': 409, 'origHeight': 410, 'width': 409, 'height': 410, 'widthPercent': 0.45, 'rescaleHeight': False, 'trialN': 66, 'loaded': True, 'loadedTime': 3877.2000000029802, 'positionName': 'RIGHT', 'positionCoords': [665.6, 155], 'bid': 1.67}]",134452.70000000298,1669841405524,hashbrowns,edamame,1.64,1.67,0.030000000000000027,hashbrowns,1825.3999999985099,1827,1827.199999999255,True,u,136780.40000000224,2327.699999999255,1669841407851,2327,HRV,HRV_0291,2022-11-30 20:53:50
67,"[{'imgObject': {}, 'id': 'fruitsalad', 'src': '/static/foodstim60/fruitsalad.jpg', 'key': 'u', 'origWidth': 410, 'origHeight': 410, 'width': 410, 'height': 410, 'widthPercent': 0.45, 'rescaleHeight': False, 'trialN': 67, 'loaded': True, 'loadedTime': 3889.800000000745, 'positionName': 'LEFT', 'positionCoords': [204.4, 155], 'bid': 0.46}, {'imgObject': {}, 'id': 'Grapes', 'src': '/static/foodstim60/Grapes.jpg', 'key': 'i', 'origWidth': 411, 'origHeight': 411, 'width': 411, 'height': 411, 'widthPercent': 0.45, 'rescaleHeight': False, 'trialN': 67, 'loaded': True, 'loadedTime': 3872.2000000029802, 'positionName': 'RIGHT', 'positionCoords': [665.6, 154.5], 'bid': 2.87}]",136780.70000000298,1669841407852,fruitsalad,Grapes,0.46,2.87,2.41,Grapes,1135.3999999985099,1137,1137.3999999985099,True,i,138420.30000000075,1639.5999999977648,1669841409491,1639,HRV,HRV_0291,2022-11-30 20:53:50
68,"[{'imgObject': {}, 'id': 'avocado', 'src': '/static/foodstim60/avocado.jpg', 'key': 'u', 'origWidth': 409, 'origHeight': 409, 'width': 409, 'height': 409, 'widthPercent': 0.45, 'rescaleHeight': False, 'trialN': 68, 'loaded': True, 'loadedTime': 3863.900000002235, 'positionName': 'LEFT', 'positionCoords': [205.4, 155.5], 'bid': 0.03}, {'imgObject': {}, 'id': 'cantaloupe', 'src': '/static/foodstim60/cantaloupe.jpg', 'key': 'i', 'origWidth': 409, 'origHeight': 409, 'width': 409, 'height': 409, 'widthPercent': 0.45, 'rescaleHeight': False, 'trialN': 68, 'loaded': True, 'loadedTime': 3889.7000000029802, 'positionName': 'RIGHT', 'positionCoords': [665.6, 155.5], 'bid': 0.04}]",138420.6000000015,1669841409492,avocado,cantaloupe,0.03,0.04,0.010000000000000002,cantaloupe,2300.5,2303,2303.199999999255,True,i,141228.5,2807.89999999851,1669841412299,2807,HRV,HRV_0291,2022-11-30 20:53:50
69,"[{'imgObject': {}, 'id': 'raspberries', 'src': '/static/foodstim60/raspberries.jpg', 'key': 'u', 'origWidth': 411, 'origHeight': 411, 'width': 411, 'height': 411, 'widthPercent': 0.45, 'rescaleHeight': False, 'trialN': 69, 'loaded': True, 'loadedTime': 3879.900000002235, 'positionName': 'LEFT', 'positionCoords': [203.4, 154.5], 'bid': 3.54}, {'imgObject': {}, 'id': 'shreddedwheatwithmilk', 'src': '/static/foodstim60/shreddedwheatwithmilk.jpg', 'key': 'i', 'origWidth': 410, 'origHeight': 410, 'width': 410, 'height': 410, 'widthPercent': 0.45, 'rescaleHeight': False, 'trialN': 69, 'loaded': True, 'loadedTime': 3789, 'positionName': 'RIGHT', 'positionCoords': [665.6, 155], 'bid': 3.18}]",141228.80000000075,1669841412300,raspberries,shreddedwheatwithmilk,3.54,3.18,-0.3599999999999999,shreddedwheatwithmilk,2495.300000000745,2496,2496.199999999255,True,i,144228.40000000224,2999.60000000149,1669841415299,2999,HRV,HRV_0291,2022-11-30 20:53:50
70,"[{'imgObject': {}, 'id': 'steak', 'src': '/static/foodstim60/steak.jpg', 'key': 'u', 'origWidth': 410, 'origHeight': 410, 'width': 410, 'height': 410, 'widthPercent': 0.45, 'rescaleHeight': False, 'trialN': 70, 'loaded': True, 'loadedTime': 3890.60000000149, 'positionName': 'LEFT', 'positionCoords': [204.4, 155], 'bid': 10}, {'imgObject': {}, 'id': 'grilled chicken strips', 'src': '/static/foodstim60/grilled chicken strips.jpg', 'key': 'i', 'origWidth': 410, 'origHeight': 411, 'width': 410, 'height': 411, 'widthPercent': 0.45, 'rescaleHeight': False, 'trialN': 70, 'loaded': True, 'loadedTime': 3872.900000002235, 'positionName': 'RIGHT', 'positionCoords': [665.6, 154.5], 'bid': 9.95}]",144228.6000000015,1669841415300,steak,grilled chicken strips,10.0,9.95,-0.05000000000000071,steak,907.5,909,909.5,True,u,145644.40000000224,1415.800000000745,1669841416715,1415,HRV,HRV_0291,2022-11-30 20:53:50
71,"[{'imgObject': {}, 'id': 'apple slices', 'src': '/static/foodstim60/apple slices.jpg', 'key': 'u', 'origWidth': 409, 'origHeight': 410, 'width': 409, 'height': 410, 'widthPercent': 0.45, 'rescaleHeight': False, 'trialN': 71, 'loaded': True, 'loadedTime': 3878.2000000029802, 'positionName': 'LEFT', 'positionCoords': [205.4, 155], 'bid': 4.79}, {'imgObject': {}, 'id': 'turkey sandwich', 'src': '/static/foodstim60/turkey sandwich.jpg', 'key': 'i', 'origWidth': 409, 'origHeight': 409, 'width': 409, 'height': 409, 'widthPercent': 0.45, 'rescaleHeight': False, 'trialN': 71, 'loaded': True, 'loadedTime': 3883.300000000745, 'positionName': 'RIGHT', 'positionCoords': [665.6, 155.5], 'bid': 10}]",145644.6000000015,1669841416716,apple slices,turkey sandwich,4.79,10.0,5.21,turkey sandwich,649.5,651,651.5,True,i,146796.40000000224,1151.800000000745,1669841417867,1151,HRV,HRV_0291,2022-11-30 20:53:50
72,"[{'imgObject': {}, 'id': 'turkeysandwich', 'src': '/static/foodstim60/turkeysandwich.jpg', 'key': 'u', 'origWidth': 409, 'origHeight': 409, 'width': 409, 'height': 409, 'widthPercent': 0.45, 'rescaleHeight': False, 'trialN': 72, 'loaded': True, 'loadedTime': 3889.300000000745, 'positionName': 'LEFT', 'positionCoords': [205.4, 155.5], 'bid': 9.54}, {'imgObject': {}, 'id': 'mashed potato', 'src': '/static/foodstim60/mashed potato.jpg', 'key': 'i', 'origWidth': 409, 'origHeight': 409, 'width': 409, 'height': 409, 'widthPercent': 0.45, 'rescaleHeight': False, 'trialN': 72, 'loaded': True, 'loadedTime': 3847.60000000149, 'positionName': 'RIGHT', 'positionCoords': [665.6, 155.5], 'bid': 7.2}]",146796.70000000298,1669841417868,turkeysandwich,mashed potato,9.54,7.2,-2.339999999999999,turkeysandwich,843.3999999985099,845,845.1999999992549,True,u,148148.5,1351.7999999970198,1669841419219,1351,HRV,HRV_0291,2022-11-30 20:53:50
73,"[{'imgObject': {}, 'id': 'cantaloupe', 'src': '/static/foodstim60/cantaloupe.jpg', 'key': 'u', 'origWidth': 409, 'origHeight': 409, 'width': 409, 'height': 409, 'widthPercent': 0.45, 'rescaleHeight': False, 'trialN': 73, 'loaded': True, 'loadedTime': 3889.800000000745, 'positionName': 'LEFT', 'positionCoords': [205.4, 155.5], 'bid': 0.04}, {'imgObject': {}, 'id': 'eggsalad', 'src': '/static/foodstim60/eggsalad.jpg', 'key': 'i', 'origWidth': 410, 'origHeight': 409, 'width': 410, 'height': 409, 'widthPercent': 0.45, 'rescaleHeight': False, 'trialN': 73, 'loaded': True, 'loadedTime': 3882.2000000029802, 'positionName': 'RIGHT', 'positionCoords': [665.6, 155.5], 'bid': 0.73}]",148148.70000000298,1669841419220,cantaloupe,eggsalad,0.04,0.73,0.69,eggsalad,1521.3999999985099,1522,1522.5999999977648,True,i,150172.20000000298,2023.5,1669841421243,2023,HRV,HRV_0291,2022-11-30 20:53:50
74,"[{'imgObject': {}, 'id': 'Tribe humus pita', 'src': '/static/foodstim60/Tribe humus pita.jpg', 'key': 'u', 'origWidth': 411, 'origHeight': 411, 'width': 411, 'height': 411, 'widthPercent': 0.45, 'rescaleHeight': False, 'trialN': 74, 'loaded': True, 'loadedTime': 3887.900000002235, 'positionName': 'LEFT', 'positionCoords': [203.4, 154.5], 'bid': 5.96}, {'imgObject': {}, 'id': 'yogurt no spoon', 'src': '/static/foodstim60/yogurt no spoon.jpg', 'key': 'i', 'origWidth': 411, 'origHeight': 410, 'width': 411, 'height': 410, 'widthPercent': 0.45, 'rescaleHeight': False, 'trialN': 74, 'loaded': True, 'loadedTime': 3890.60000000149, 'positionName': 'RIGHT', 'positionCoords': [665.6, 155], 'bid': 4.26}]",150172.40000000224,1669841421243,Tribe humus pita,yogurt no spoon,5.96,4.26,-1.7000000000000002,Tribe humus pita,1993.699999999255,1995,1994.699999999255,True,u,152668.5,2496.099999997765,1669841423739,2496,HRV,HRV_0291,2022-11-30 20:53:50
75,"[{'imgObject': {}, 'id': 'mac & cheese', 'src': '/static/foodstim60/mac & cheese.jpg', 'key': 'u', 'origWidth': 410, 'origHeight': 410, 'width': 410, 'height': 410, 'widthPercent': 0.45, 'rescaleHeight': False, 'trialN': 75, 'loaded': True, 'loadedTime': 3830, 'positionName': 'LEFT', 'positionCoords': [204.4, 155], 'bid': 7.31}, {'imgObject': {}, 'id': 'pear', 'src': '/static/foodstim60/pear.jpg', 'key': 'i', 'origWidth': 411, 'origHeight': 410, 'width': 411, 'height': 410, 'widthPercent': 0.45, 'rescaleHeight': False, 'trialN': 75, 'loaded': True, 'loadedTime': 3886.10000000149, 'positionName': 'RIGHT', 'positionCoords': [665.6, 155], 'bid': 2.06}]",152668.70000000298,1669841423740,mac & cheese,pear,7.31,2.06,-5.25,mac & cheese,1064.3999999985099,1066,1066.5,True,u,154236.5,1567.7999999970198,1669841425307,1567,HRV,HRV_0291,2022-11-30 20:53:50
76,"[{'imgObject': {}, 'id': 'Grapes', 'src': '/static/foodstim60/Grapes.jpg', 'key': 'u', 'origWidth': 411, 'origHeight': 411, 'width': 411, 'height': 411, 'widthPercent': 0.45, 'rescaleHeight': False, 'trialN': 76, 'loaded': True, 'loadedTime': 3872.2000000029802, 'positionName': 'LEFT', 'positionCoords': [203.4, 154.5], 'bid': 2.87}, {'imgObject': {}, 'id': 'salad w chicken', 'src': '/static/foodstim60/salad w chicken.jpg', 'key': 'i', 'origWidth': 411, 'origHeight': 411, 'width': 411, 'height': 411, 'widthPercent': 0.45, 'rescaleHeight': False, 'trialN': 76, 'loaded': True, 'loadedTime': 3888.900000002235, 'positionName': 'RIGHT', 'positionCoords': [665.6, 154.5], 'bid': 8.25}]",154236.80000000075,1669841425308,Grapes,salad w chicken,2.87,8.25,5.38,salad w chicken,860.3000000007451,862,862.3000000007451,True,i,155604.5,1367.699999999255,1669841426675,1367,HRV,HRV_0291,2022-11-30 20:53:50
77,"[{'imgObject': {}, 'id': 'yogurt no spoon', 'src': '/static/foodstim60/yogurt no spoon.jpg', 'key': 'u', 'origWidth': 411, 'origHeight': 410, 'width': 411, 'height': 410, 'widthPercent': 0.45, 'rescaleHeight': False, 'trialN': 77, 'loaded': True, 'loadedTime': 3891, 'positionName': 'LEFT', 'positionCoords': [203.4, 155], 'bid': 4.26}, {'imgObject': {}, 'id': 'popsicles', 'src': '/static/foodstim60/popsicles.jpg', 'key': 'i', 'origWidth': 410, 'origHeight': 410, 'width': 410, 'height': 410, 'widthPercent': 0.45, 'rescaleHeight': False, 'trialN': 77, 'loaded': True, 'loadedTime': 3881.5, 'positionName': 'RIGHT', 'positionCoords': [665.6, 155], 'bid': 4.18}]",155604.70000000298,1669841426676,yogurt no spoon,popsicles,4.26,4.18,-0.08000000000000007,yogurt no spoon,1470.3999999985099,1472,1472.5,True,u,157580.5,1975.7999999970198,1669841428651,1975,HRV,HRV_0291,2022-11-30 20:53:50
78,"[{'imgObject': {}, 'id': 'roastedpotatoes', 'src': '/static/foodstim60/roastedpotatoes.jpg', 'key': 'u', 'origWidth': 409, 'origHeight': 410, 'width': 409, 'height': 410, 'widthPercent': 0.45, 'rescaleHeight': False, 'trialN': 78, 'loaded': True, 'loadedTime': 3882.7000000029802, 'positionName': 'LEFT', 'positionCoords': [205.4, 155], 'bid': 9.32}, {'imgObject': {}, 'id': 'tacos', 'src': '/static/foodstim60/tacos.jpg', 'key': 'i', 'origWidth': 411, 'origHeight': 411, 'width': 411, 'height': 411, 'widthPercent': 0.45, 'rescaleHeight': False, 'trialN': 78, 'loaded': True, 'loadedTime': 3807.60000000149, 'positionName': 'RIGHT', 'positionCoords': [665.6, 154.5], 'bid': 9.59}]",157580.80000000075,1669841428652,roastedpotatoes,tacos,9.32,9.59,0.2699999999999996,tacos,1218.300000000745,1220,1219.9000000022352,True,i,159308.5,1727.699999999255,1669841430379,1727,HRV,HRV_0291,2022-11-30 20:53:50
79,"[{'imgObject': {}, 'id': 'cantaloupe', 'src': '/static/foodstim60/cantaloupe.jpg', 'key': 'u', 'origWidth': 409, 'origHeight': 409, 'width': 409, 'height': 409, 'widthPercent': 0.45, 'rescaleHeight': False, 'trialN': 79, 'loaded': True, 'loadedTime': 3889.7000000029802, 'positionName': 'LEFT', 'positionCoords': [205.4, 155.5], 'bid': 0.04}, {'imgObject': {}, 'id': 'lox', 'src': '/static/foodstim60/lox.jpg', 'key': 'i', 'origWidth': 410, 'origHeight': 411, 'width': 410, 'height': 411, 'widthPercent': 0.45, 'rescaleHeight': False, 'trialN': 79, 'loaded': True, 'loadedTime': 3884.60000000149, 'positionName': 'RIGHT', 'positionCoords': [665.6, 154.5], 'bid': 5.5600000000000005}]",159308.70000000298,1669841430380,cantaloupe,lox,0.04,5.5600000000000005,5.5200000000000005,lox,817.3999999985099,819,819.2999999970198,True,i,160628.5,1319.7999999970198,1669841431699,1319,HRV,HRV_0291,2022-11-30 20:53:50
80,"[{'imgObject': {}, 'id': 'turkeysandwich', 'src': '/static/foodstim60/turkeysandwich.jpg', 'key': 'u', 'origWidth': 409, 'origHeight': 409, 'width': 409, 'height': 409, 'widthPercent': 0.45, 'rescaleHeight': False, 'trialN': 80, 'loaded': True, 'loadedTime': 3889.300000000745, 'positionName': 'LEFT', 'positionCoords': [205.4, 155.5], 'bid': 9.54}, {'imgObject': {}, 'id': 'steak', 'src': '/static/foodstim60/steak.jpg', 'key': 'i', 'origWidth': 410, 'origHeight': 410, 'width': 410, 'height': 410, 'widthPercent': 0.45, 'rescaleHeight': False, 'trialN': 80, 'loaded': True, 'loadedTime': 3890.60000000149, 'positionName': 'RIGHT', 'positionCoords': [665.6, 155], 'bid': 10}]",160628.70000000298,1669841431700,turkeysandwich,steak,9.54,10.0,0.46000000000000085,steak,944.3999999985099,945,945.0999999977648,True,i,162076.40000000224,1447.699999999255,1669841433147,1447,HRV,HRV_0291,2022-11-30 20:53:50
81,"[{'imgObject': {}, 'id': 'pear', 'src': '/static/foodstim60/pear.jpg', 'key': 'u', 'origWidth': 411, 'origHeight': 410, 'width': 411, 'height': 410, 'widthPercent': 0.45, 'rescaleHeight': False, 'trialN': 81, 'loaded': True, 'loadedTime': 3886.10000000149, 'positionName': 'LEFT', 'positionCoords': [203.4, 155], 'bid': 2.06}, {'imgObject': {}, 'id': 'olives', 'src': '/static/foodstim60/olives.jpg', 'key': 'i', 'origWidth': 410, 'origHeight': 410, 'width': 410, 'height': 410, 'widthPercent': 0.45, 'rescaleHeight': False, 'trialN': 81, 'loaded': True, 'loadedTime': 3835.400000002235, 'positionName': 'RIGHT', 'positionCoords': [665.6, 155], 'bid': 0.35}]",162076.70000000298,1669841433148,pear,olives,2.06,0.35,-1.71,pear,1223.3999999985099,1225,1225.699999999255,True,u,163804.30000000075,1727.5999999977648,1669841434875,1727,HRV,HRV_0291,2022-11-30 20:53:50
82,"[{'imgObject': {}, 'id': 'mac & cheese', 'src': '/static/foodstim60/mac & cheese.jpg', 'key': 'u', 'origWidth': 410, 'origHeight': 410, 'width': 410, 'height': 410, 'widthPercent': 0.45, 'rescaleHeight': False, 'trialN': 82, 'loaded': True, 'loadedTime': 3830, 'positionName': 'LEFT', 'positionCoords': [204.4, 155], 'bid': 7.31}, {'imgObject': {}, 'id': 'salad w chicken', 'src': '/static/foodstim60/salad w chicken.jpg', 'key': 'i', 'origWidth': 411, 'origHeight': 411, 'width': 411, 'height': 411, 'widthPercent': 0.45, 'rescaleHeight': False, 'trialN': 82, 'loaded': True, 'loadedTime': 3888.900000002235, 'positionName': 'RIGHT', 'positionCoords': [665.6, 154.5], 'bid': 8.25}]",163804.6000000015,1669841434875,mac & cheese,salad w chicken,7.31,8.25,0.9400000000000004,salad w chicken,910.5,913,912.6000000014901,True,i,165220.40000000224,1415.800000000745,1669841436291,1416,HRV,HRV_0291,2022-11-30 20:53:50
83,"[{'imgObject': {}, 'id': 'salad w chicken', 'src': '/static/foodstim60/salad w chicken.jpg', 'key': 'u', 'origWidth': 411, 'origHeight': 411, 'width': 411, 'height': 411, 'widthPercent': 0.45, 'rescaleHeight': False, 'trialN': 83, 'loaded': True, 'loadedTime': 3888.900000002235, 'positionName': 'LEFT', 'positionCoords': [203.4, 154.5], 'bid': 8.25}, {'imgObject': {}, 'id': 'bagel plain', 'src': '/static/foodstim60/bagel plain.jpg', 'key': 'i', 'origWidth': 410, 'origHeight': 410, 'width': 410, 'height': 410, 'widthPercent': 0.45, 'rescaleHeight': False, 'trialN': 83, 'loaded': True, 'loadedTime': 3863.5, 'positionName': 'RIGHT', 'positionCoords': [665.6, 155], 'bid': 5.0600000000000005}]",165220.70000000298,1669841436292,salad w chicken,bagel plain,8.25,5.0600000000000005,-3.1899999999999995,salad w chicken,1603.3999999985099,1603,1603.8999999985099,True,u,167332.40000000224,2111.699999999255,1669841438403,2111,HRV,HRV_0291,2022-11-30 20:53:50
84,"[{'imgObject': {}, 'id': 'bagel and cc', 'src': '/static/foodstim60/bagel and cc.jpg', 'key': 'u', 'origWidth': 410, 'origHeight': 410, 'width': 410, 'height': 410, 'widthPercent': 0.45, 'rescaleHeight': False, 'trialN': 84, 'loaded': True, 'loadedTime': 3891.10000000149, 'positionName': 'LEFT', 'positionCoords': [204.4, 155], 'bid': 7.04}, {'imgObject': {}, 'id': 'burger', 'src': '/static/foodstim60/burger.jpg', 'key': 'i', 'origWidth': 409, 'origHeight': 409, 'width': 409, 'height': 409, 'widthPercent': 0.45, 'rescaleHeight': False, 'trialN': 84, 'loaded': True, 'loadedTime': 3868.5, 'positionName': 'RIGHT', 'positionCoords': [665.6, 155.5], 'bid': 8.71}]",167332.70000000298,1669841438404,bagel and cc,burger,7.04,8.71,1.6700000000000008,burger,1122.3999999985099,1124,1124.5999999977648,True,i,168964.5,1631.7999999970198,1669841440035,1631,HRV,HRV_0291,2022-11-30 20:53:50
85,"[{'imgObject': {}, 'id': 'steak', 'src': '/static/foodstim60/steak.jpg', 'key': 'u', 'origWidth': 410, 'origHeight': 410, 'width': 410, 'height': 410, 'widthPercent': 0.45, 'rescaleHeight': False, 'trialN': 85, 'loaded': True, 'loadedTime': 3890.60000000149, 'positionName': 'LEFT', 'positionCoords': [204.4, 155], 'bid': 10}, {'imgObject': {}, 'id': 'ice cream sundae 002', 'src': '/static/foodstim60/ice cream sundae 002.jpg', 'key': 'i', 'origWidth': 409, 'origHeight': 409, 'width': 409, 'height': 409, 'widthPercent': 0.45, 'rescaleHeight': False, 'trialN': 85, 'loaded': True, 'loadedTime': 3886.900000002235, 'positionName': 'RIGHT', 'positionCoords': [665.6, 155.5], 'bid': 4.84}]",168964.70000000298,1669841440036,steak,ice cream sundae 002,10.0,4.84,-5.16,steak,642.3999999985099,644,644.5999999977648,True,u,170116.5,1151.7999999970198,1669841441187,1151,HRV,HRV_0291,2022-11-30 20:53:50
86,"[{'imgObject': {}, 'id': 'raisin bran w milk', 'src': '/static/foodstim60/raisin bran w milk.jpg', 'key': 'u', 'origWidth': 411, 'origHeight': 411, 'width': 411, 'height': 411, 'widthPercent': 0.45, 'rescaleHeight': False, 'trialN': 86, 'loaded': True, 'loadedTime': 3814.800000000745, 'positionName': 'LEFT', 'positionCoords': [203.4, 154.5], 'bid': 4.03}, {'imgObject': {}, 'id': 'lox', 'src': '/static/foodstim60/lox.jpg', 'key': 'i', 'origWidth': 410, 'origHeight': 411, 'width': 410, 'height': 411, 'widthPercent': 0.45, 'rescaleHeight': False, 'trialN': 86, 'loaded': True, 'loadedTime': 3885, 'positionName': 'RIGHT', 'positionCoords': [665.6, 154.5], 'bid': 5.5600000000000005}]",170116.80000000075,1669841441188,raisin bran w milk,lox,4.03,5.5600000000000005,1.5300000000000002,lox,2663.300000000745,2665,2664.800000000745,True,i,173284.40000000224,3167.60000000149,1669841444355,3167,HRV,HRV_0291,2022-11-30 20:53:50
87,"[{'imgObject': {}, 'id': 'granola w milk', 'src': '/static/foodstim60/granola w milk.jpg', 'key': 'u', 'origWidth': 410, 'origHeight': 410, 'width': 410, 'height': 410, 'widthPercent': 0.45, 'rescaleHeight': False, 'trialN': 87, 'loaded': True, 'loadedTime': 3859.10000000149, 'positionName': 'LEFT', 'positionCoords': [204.4, 155], 'bid': 3.01}, {'imgObject': {}, 'id': 'blueberries', 'src': '/static/foodstim60/blueberries.jpg', 'key': 'i', 'origWidth': 411, 'origHeight': 411, 'width': 411, 'height': 411, 'widthPercent': 0.45, 'rescaleHeight': False, 'trialN': 87, 'loaded': True, 'loadedTime': 3884.5, 'positionName': 'RIGHT', 'positionCoords': [665.6, 154.5], 'bid': 1.68}]",173284.70000000298,1669841444356,granola w milk,blueberries,3.01,1.68,-1.3299999999999998,granola w milk,1352.3999999985099,1354,1354.2999999970198,True,u,175140.40000000224,1855.699999999255,1669841446211,1855,HRV,HRV_0291,2022-11-30 20:53:50
88,"[{'imgObject': {}, 'id': 'turkeysandwich', 'src': '/static/foodstim60/turkeysandwich.jpg', 'key': 'u', 'origWidth': 409, 'origHeight': 409, 'width': 409, 'height': 409, 'widthPercent': 0.45, 'rescaleHeight': False, 'trialN': 88, 'loaded': True, 'loadedTime': 3889.400000002235, 'positionName': 'LEFT', 'positionCoords': [205.4, 155.5], 'bid': 9.54}, {'imgObject': {}, 'id': 'chicken nuggets2', 'src': '/static/foodstim60/chicken nuggets2.jpg', 'key': 'i', 'origWidth': 410, 'origHeight': 409, 'width': 410, 'height': 409, 'widthPercent': 0.45, 'rescaleHeight': False, 'trialN': 88, 'loaded': True, 'loadedTime': 3799.900000002235, 'positionName': 'RIGHT', 'positionCoords': [665.6, 155.5], 'bid': 9.84}]",175140.70000000298,1669841446212,turkeysandwich,chicken nuggets2,9.54,9.84,0.3000000000000007,chicken nuggets2,1049.3999999985099,1051,1051.699999999255,True,i,176700.30000000075,1559.5999999977648,1669841447771,1559,HRV,HRV_0291,2022-11-30 20:53:50
89,"[{'imgObject': {}, 'id': 'omelette', 'src': '/static/foodstim60/omelette.jpg', 'key': 'u', 'origWidth': 410, 'origHeight': 409, 'width': 410, 'height': 409, 'widthPercent': 0.45, 'rescaleHeight': False, 'trialN': 89, 'loaded': True, 'loadedTime': 3887.400000002235, 'positionName': 'LEFT', 'positionCoords': [204.4, 155.5], 'bid': 8.870000000000001}, {'imgObject': {}, 'id': 'eggs', 'src': '/static/foodstim60/eggs.jpg', 'key': 'i', 'origWidth': 409, 'origHeight': 409, 'width': 409, 'height': 409, 'widthPercent': 0.45, 'rescaleHeight': False, 'trialN': 89, 'loaded': True, 'loadedTime': 3807.10000000149, 'positionName': 'RIGHT', 'positionCoords': [665.6, 155.5], 'bid': 8.620000000000001}]",176700.30000000075,1669841447771,omelette,eggs,8.870000000000001,8.620000000000001,-0.25,omelette,939.8000000007451,942,941.9000000022352,True,u,178148.5,1448.199999999255,1669841449219,1448,HRV,HRV_0291,2022-11-30 20:53:50
90,"[{'imgObject': {}, 'id': 'burrito', 'src': '/static/foodstim60/burrito.jpg', 'key': 'u', 'origWidth': 410, 'origHeight': 410, 'width': 410, 'height': 410, 'widthPercent': 0.45, 'rescaleHeight': False, 'trialN': 90, 'loaded': True, 'loadedTime': 3833, 'positionName': 'LEFT', 'positionCoords': [204.4, 155], 'bid': 7.42}, {'imgObject': {}, 'id': 'cherry tomato', 'src': '/static/foodstim60/cherry tomato.jpg', 'key': 'i', 'origWidth': 410, 'origHeight': 410, 'width': 410, 'height': 410, 'widthPercent': 0.45, 'rescaleHeight': False, 'trialN': 90, 'loaded': True, 'loadedTime': 3836.300000000745, 'positionName': 'RIGHT', 'positionCoords': [665.6, 155], 'bid': 5.01}]",187191.5,1669841458262,burrito,cherry tomato,7.42,5.01,-2.41,burrito,1232.6000000014901,1235,1235.0,True,u,188932.5,1741.0,1669841460003,1741,HRV,HRV_0291,2022-11-30 20:53:50
91,"[{'imgObject': {}, 'id': 'blueberries', 'src': '/static/foodstim60/blueberries.jpg', 'key': 'u', 'origWidth': 411, 'origHeight': 411, 'width': 411, 'height': 411, 'widthPercent': 0.45, 'rescaleHeight': False, 'trialN': 91, 'loaded': True, 'loadedTime': 3884.60000000149, 'positionName': 'LEFT', 'positionCoords': [203.4, 154.5], 'bid': 1.68}, {'imgObject': {}, 'id': 'blackbeanswithrice', 'src': '/static/foodstim60/blackbeanswithrice.jpg', 'key': 'i', 'origWidth': 410, 'origHeight': 410, 'width': 410, 'height': 410, 'widthPercent': 0.45, 'rescaleHeight': False, 'trialN': 91, 'loaded': True, 'loadedTime': 3792.2000000029802, 'positionName': 'RIGHT', 'positionCoords': [665.6, 155], 'bid': 1.92}]",188932.70000000298,1669841460004,blueberries,blackbeanswithrice,1.68,1.92,0.24,blackbeanswithrice,1807.3999999985099,1809,1809.3999999985099,True,i,191244.40000000224,2311.699999999255,1669841462315,2311,HRV,HRV_0291,2022-11-30 20:53:50
92,"[{'imgObject': {}, 'id': 'bagel and cc', 'src': '/static/foodstim60/bagel and cc.jpg', 'key': 'u', 'origWidth': 410, 'origHeight': 410, 'width': 410, 'height': 410, 'widthPercent': 0.45, 'rescaleHeight': False, 'trialN': 92, 'loaded': True, 'loadedTime': 3891.400000002235, 'positionName': 'LEFT', 'positionCoords': [204.4, 155], 'bid': 7.04}, {'imgObject': {}, 'id': 'burrito', 'src': '/static/foodstim60/burrito.jpg', 'key': 'i', 'origWidth': 410, 'origHeight': 410, 'width': 410, 'height': 410, 'widthPercent': 0.45, 'rescaleHeight': False, 'trialN': 92, 'loaded': True, 'loadedTime': 3832.2000000029802, 'positionName': 'RIGHT', 'positionCoords': [665.6, 155], 'bid': 7.42}]",191244.6000000015,1669841462316,bagel and cc,burrito,7.04,7.42,0.3799999999999999,burrito,979.5,980,980.5,True,i,192732.40000000224,1487.800000000745,1669841463803,1487,HRV,HRV_0291,2022-11-30 20:53:50
93,"[{'imgObject': {}, 'id': 'baked potato', 'src': '/static/foodstim60/baked potato.jpg', 'key': 'u', 'origWidth': 409, 'origHeight': 410, 'width': 409, 'height': 410, 'widthPercent': 0.45, 'rescaleHeight': False, 'trialN': 93, 'loaded': True, 'loadedTime': 3853.5, 'positionName': 'LEFT', 'positionCoords': [205.4, 155], 'bid': 7.0600000000000005}, {'imgObject': {}, 'id': 'edamame', 'src': '/static/foodstim60/edamame.jpg', 'key': 'i', 'origWidth': 409, 'origHeight': 410, 'width': 409, 'height': 410, 'widthPercent': 0.45, 'rescaleHeight': False, 'trialN': 93, 'loaded': True, 'loadedTime': 3877.10000000149, 'positionName': 'RIGHT', 'positionCoords': [665.6, 155], 'bid': 1.67}]",192732.6000000015,1669841463804,baked potato,edamame,7.0600000000000005,1.67,-5.390000000000001,baked potato,1209.5,1211,1211.6000000014901,True,u,194452.40000000224,1719.800000000745,1669841465523,1719,HRV,HRV_0291,2022-11-30 20:53:50
94,"[{'imgObject': {}, 'id': 'sushi w_condiments', 'src': '/static/foodstim60/sushi w_condiments.jpg', 'key': 'u', 'origWidth': 410, 'origHeight': 410, 'width': 410, 'height': 410, 'widthPercent': 0.45, 'rescaleHeight': False, 'trialN': 94, 'loaded': True, 'loadedTime': 3881, 'positionName': 'LEFT', 'positionCoords': [204.4, 155], 'bid': 4.2}, {'imgObject': {}, 'id': 'cherry tomato', 'src': '/static/foodstim60/cherry tomato.jpg', 'key': 'i', 'origWidth': 410, 'origHeight': 410, 'width': 410, 'height': 410, 'widthPercent': 0.45, 'rescaleHeight': False, 'trialN': 94, 'loaded': True, 'loadedTime': 3836.300000000745, 'positionName': 'RIGHT', 'positionCoords': [665.6, 155], 'bid': 5.01}]",194452.6000000015,1669841465524,sushi w_condiments,cherry tomato,4.2,5.01,0.8099999999999996,cherry tomato,1594.5,1596,1596.3999999985099,True,i,196556.6000000015,2104.0,1669841467627,2103,HRV,HRV_0291,2022-11-30 20:53:50
95,"[{'imgObject': {}, 'id': 'chicken nuggets2', 'src': '/static/foodstim60/chicken nuggets2.jpg', 'key': 'u', 'origWidth': 410, 'origHeight': 409, 'width': 410, 'height': 409, 'widthPercent': 0.45, 'rescaleHeight': False, 'trialN': 95, 'loaded': True, 'loadedTime': 3799.2000000029802, 'positionName': 'LEFT', 'positionCoords': [204.4, 155.5], 'bid': 9.84}, {'imgObject': {}, 'id': 'tacos', 'src': '/static/foodstim60/tacos.jpg', 'key': 'i', 'origWidth': 411, 'origHeight': 411, 'width': 411, 'height': 411, 'widthPercent': 0.45, 'rescaleHeight': False, 'trialN': 95, 'loaded': True, 'loadedTime': 3814.10000000149, 'positionName': 'RIGHT', 'positionCoords': [665.6, 154.5], 'bid': 9.59}]",196556.80000000075,1669841467628,chicken nuggets2,tacos,9.84,9.59,-0.25,tacos,953.3000000007451,956,955.8000000007451,True,i,198020.6000000015,1463.800000000745,1669841469091,1463,HRV,HRV_0291,2022-11-30 20:53:50
96,"[{'imgObject': {}, 'id': 'corn cob', 'src': '/static/foodstim60/corn cob.jpg', 'key': 'u', 'origWidth': 411, 'origHeight': 411, 'width': 411, 'height': 411, 'widthPercent': 0.45, 'rescaleHeight': False, 'trialN': 96, 'loaded': True, 'loadedTime': 3888.400000002235, 'positionName': 'LEFT', 'positionCoords': [203.4, 154.5], 'bid': 7.12}, {'imgObject': {}, 'id': 'grilled chicken strips', 'src': '/static/foodstim60/grilled chicken strips.jpg', 'key': 'i', 'origWidth': 410, 'origHeight': 411, 'width': 410, 'height': 411, 'widthPercent': 0.45, 'rescaleHeight': False, 'trialN': 96, 'loaded': True, 'loadedTime': 3872.900000002235, 'positionName': 'RIGHT', 'positionCoords': [665.6, 154.5], 'bid': 9.95}]",198020.80000000075,1669841469092,corn cob,grilled chicken strips,7.12,9.95,2.829999999999999,grilled chicken strips,939.3000000007451,940,939.9000000022352,True,i,199468.20000000298,1447.4000000022352,1669841470539,1447,HRV,HRV_0291,2022-11-30 20:53:50
97,"[{'imgObject': {}, 'id': 'granola w milk', 'src': '/static/foodstim60/granola w milk.jpg', 'key': 'u', 'origWidth': 410, 'origHeight': 410, 'width': 410, 'height': 410, 'widthPercent': 0.45, 'rescaleHeight': False, 'trialN': 97, 'loaded': True, 'loadedTime': 3859.10000000149, 'positionName': 'LEFT', 'positionCoords': [204.4, 155], 'bid': 3.01}, {'imgObject': {}, 'id': 'orange slices', 'src': '/static/foodstim60/orange slices.jpg', 'key': 'i', 'origWidth': 409, 'origHeight': 410, 'width': 409, 'height': 410, 'widthPercent': 0.45, 'rescaleHeight': False, 'trialN': 97, 'loaded': True, 'loadedTime': 3787.900000002235, 'positionName': 'RIGHT', 'positionCoords': [665.6, 155], 'bid': 3.15}]",199468.30000000075,1669841470539,granola w milk,orange slices,3.01,3.15,0.14000000000000012,granola w milk,2367.800000000745,2369,2368.400000002235,True,u,202340.40000000224,2872.10000000149,1669841473411,2872,HRV,HRV_0291,2022-11-30 20:53:50
98,"[{'imgObject': {}, 'id': 'steak', 'src': '/static/foodstim60/steak.jpg', 'key': 'u', 'origWidth': 410, 'origHeight': 410, 'width': 410, 'height': 410, 'widthPercent': 0.45, 'rescaleHeight': False, 'trialN': 98, 'loaded': True, 'loadedTime': 3890.60000000149, 'positionName': 'LEFT', 'positionCoords': [204.4, 155], 'bid': 10}, {'imgObject': {}, 'id': 'hotdog w must', 'src': '/static/foodstim60/hotdog w must.jpg', 'key': 'i', 'origWidth': 409, 'origHeight': 409, 'width': 409, 'height': 409, 'widthPercent': 0.45, 'rescaleHeight': False, 'trialN': 98, 'loaded': True, 'loadedTime': 3868.10000000149, 'positionName': 'RIGHT', 'positionCoords': [665.6, 155.5], 'bid': 7.28}]",202340.70000000298,1669841473412,steak,hotdog w must,10.0,7.28,-2.7199999999999998,steak,856.3999999985099,858,858.0,True,u,203700.5,1359.7999999970198,1669841474771,1359,HRV,HRV_0291,2022-11-30 20:53:50
99,"[{'imgObject': {}, 'id': 'bagel plain', 'src': '/static/foodstim60/bagel plain.jpg', 'key': 'u', 'origWidth': 410, 'origHeight': 410, 'width': 410, 'height': 410, 'widthPercent': 0.45, 'rescaleHeight': False, 'trialN': 99, 'loaded': True, 'loadedTime': 3863.5, 'positionName': 'LEFT', 'positionCoords': [204.4, 155], 'bid': 5.0600000000000005}, {'imgObject': {}, 'id': 'yogurt no spoon', 'src': '/static/foodstim60/yogurt no spoon.jpg', 'key': 'i', 'origWidth': 411, 'origHeight': 410, 'width': 411, 'height': 410, 'widthPercent': 0.45, 'rescaleHeight': False, 'trialN': 99, 'loaded': True, 'loadedTime': 3891.10000000149, 'positionName': 'RIGHT', 'positionCoords': [665.6, 155], 'bid': 4.26}]",203700.6000000015,1669841474772,bagel plain,yogurt no spoon,5.0600000000000005,4.26,-0.8000000000000007,bagel plain,1887.5,1888,1888.800000000745,True,u,206092.5,2391.89999999851,1669841477163,2391,HRV,HRV_0291,2022-11-30 20:53:50
100,"[{'imgObject': {}, 'id': 'hashbrowns', 'src': '/static/foodstim60/hashbrowns.jpg', 'key': 'u', 'origWidth': 411, 'origHeight': 410, 'width': 411, 'height': 410, 'widthPercent': 0.45, 'rescaleHeight': False, 'trialN': 100, 'loaded': True, 'loadedTime': 3881.5, 'positionName': 'LEFT', 'positionCoords': [203.4, 155], 'bid': 1.64}, {'imgObject': {}, 'id': 'cocktailshrimp', 'src': '/static/foodstim60/cocktailshrimp.jpg', 'key': 'i', 'origWidth': 410, 'origHeight': 410, 'width': 410, 'height': 410, 'widthPercent': 0.45, 'rescaleHeight': False, 'trialN': 100, 'loaded': True, 'loadedTime': 3792.400000002235, 'positionName': 'RIGHT', 'positionCoords': [665.6, 155], 'bid': 0.03}]",206092.6000000015,1669841477164,hashbrowns,cocktailshrimp,1.64,0.03,-1.6099999999999999,hashbrowns,1250.5,1252,1252.800000000745,True,u,207852.40000000224,1759.800000000745,1669841478923,1759,HRV,HRV_0291,2022-11-30 20:53:50
101,"[{'imgObject': {}, 'id': 'cantaloupe', 'src': '/static/foodstim60/cantaloupe.jpg', 'key': 'u', 'origWidth': 409, 'origHeight': 409, 'width': 409, 'height': 409, 'widthPercent': 0.45, 'rescaleHeight': False, 'trialN': 101, 'loaded': True, 'loadedTime': 3889.400000002235, 'positionName': 'LEFT', 'positionCoords': [205.4, 155.5], 'bid': 0.04}, {'imgObject': {}, 'id': 'cherries', 'src': '/static/foodstim60/cherries.jpg', 'key': 'i', 'origWidth': 410, 'origHeight': 411, 'width': 410, 'height': 411, 'widthPercent': 0.45, 'rescaleHeight': False, 'trialN': 101, 'loaded': True, 'loadedTime': 3786, 'positionName': 'RIGHT', 'positionCoords': [665.6, 154.5], 'bid': 1.85}]",207852.6000000015,1669841478924,cantaloupe,cherries,0.04,1.85,1.81,cherries,1115.5,1116,1116.6000000014901,True,i,209476.5,1623.8999999985099,1669841480547,1623,HRV,HRV_0291,2022-11-30 20:53:50
102,"[{'imgObject': {}, 'id': 'orange slices', 'src': '/static/foodstim60/orange slices.jpg', 'key': 'u', 'origWidth': 409, 'origHeight': 410, 'width': 409, 'height': 410, 'widthPercent': 0.45, 'rescaleHeight': False, 'trialN': 102, 'loaded': True, 'loadedTime': 3787.10000000149, 'positionName': 'LEFT', 'positionCoords': [205.4, 155], 'bid': 3.15}, {'imgObject': {}, 'id': 'eggsalad', 'src': '/static/foodstim60/eggsalad.jpg', 'key': 'i', 'origWidth': 410, 'origHeight': 409, 'width': 410, 'height': 409, 'widthPercent': 0.45, 'rescaleHeight': False, 'trialN': 102, 'loaded': True, 'loadedTime': 3882.2000000029802, 'positionName': 'RIGHT', 'positionCoords': [665.6, 155.5], 'bid': 0.73}]",209476.80000000075,1669841480548,orange slices,eggsalad,3.15,0.73,-2.42,orange slices,1403.300000000745,1405,1405.199999999255,True,u,211388.5,1911.699999999255,1669841482459,1911,HRV,HRV_0291,2022-11-30 20:53:50
103,"[{'imgObject': {}, 'id': 'pear', 'src': '/static/foodstim60/pear.jpg', 'key': 'u', 'origWidth': 411, 'origHeight': 410, 'width': 411, 'height': 410, 'widthPercent': 0.45, 'rescaleHeight': False, 'trialN': 103, 'loaded': True, 'loadedTime': 3885.7000000029802, 'positionName': 'LEFT', 'positionCoords': [203.4, 155], 'bid': 2.06}, {'imgObject': {}, 'id': 'blackbeanswithrice', 'src': '/static/foodstim60/blackbeanswithrice.jpg', 'key': 'i', 'origWidth': 410, 'origHeight': 410, 'width': 410, 'height': 410, 'widthPercent': 0.45, 'rescaleHeight': False, 'trialN': 103, 'loaded': True, 'loadedTime': 3791.800000000745, 'positionName': 'RIGHT', 'positionCoords': [665.6, 155], 'bid': 1.92}]",211388.6000000015,1669841482460,pear,blackbeanswithrice,2.06,1.92,-0.14000000000000012,blackbeanswithrice,1512.5,1514,1514.800000000745,True,i,213404.40000000224,2015.800000000745,1669841484475,2015,HRV,HRV_0291,2022-11-30 20:53:50
104,"[{'imgObject': {}, 'id': 'Tribe humus pita', 'src': '/static/foodstim60/Tribe humus pita.jpg', 'key': 'u', 'origWidth': 411, 'origHeight': 411, 'width': 411, 'height': 411, 'widthPercent': 0.45, 'rescaleHeight': False, 'trialN': 104, 'loaded': True, 'loadedTime': 3887.800000000745, 'positionName': 'LEFT', 'positionCoords': [203.4, 154.5], 'bid': 5.96}, {'imgObject': {}, 'id': 'corn cob', 'src': '/static/foodstim60/corn cob.jpg', 'key': 'i', 'origWidth': 411, 'origHeight': 411, 'width': 411, 'height': 411, 'widthPercent': 0.45, 'rescaleHeight': False, 'trialN': 104, 'loaded': True, 'loadedTime': 3888.300000000745, 'positionName': 'RIGHT', 'positionCoords': [665.6, 154.5], 'bid': 7.12}]",213404.70000000298,1669841484476,Tribe humus pita,corn cob,5.96,7.12,1.1600000000000001,corn cob,1797.3999999985099,1800,1800.3999999985099,True,i,215708.30000000075,2303.599999997765,1669841486779,2303,HRV,HRV_0291,2022-11-30 20:53:50
105,"[{'imgObject': {}, 'id': 'omelette', 'src': '/static/foodstim60/omelette.jpg', 'key': 'u', 'origWidth': 410, 'origHeight': 409, 'width': 410, 'height': 409, 'widthPercent': 0.45, 'rescaleHeight': False, 'trialN': 105, 'loaded': True, 'loadedTime': 3887.400000002235, 'positionName': 'LEFT', 'positionCoords': [204.4, 155.5], 'bid': 8.870000000000001}, {'imgObject': {}, 'id': 'grilled chicken strips', 'src': '/static/foodstim60/grilled chicken strips.jpg', 'key': 'i', 'origWidth': 410, 'origHeight': 411, 'width': 410, 'height': 411, 'widthPercent': 0.45, 'rescaleHeight': False, 'trialN': 105, 'loaded': True, 'loadedTime': 3872.900000002235, 'positionName': 'RIGHT', 'positionCoords': [665.6, 154.5], 'bid': 9.95}]",215708.40000000224,1669841486779,omelette,grilled chicken strips,8.870000000000001,9.95,1.0799999999999983,omelette,1831.699999999255,1834,1833.199999999255,True,u,218044.5,2336.099999997765,1669841489115,2336,HRV,HRV_0291,2022-11-30 20:53:50
106,"[{'imgObject': {}, 'id': 'lox', 'src': '/static/foodstim60/lox.jpg', 'key': 'u', 'origWidth': 410, 'origHeight': 411, 'width': 410, 'height': 411, 'widthPercent': 0.45, 'rescaleHeight': False, 'trialN': 106, 'loaded': True, 'loadedTime': 3885.10000000149, 'positionName': 'LEFT', 'positionCoords': [204.4, 154.5], 'bid': 5.5600000000000005}, {'imgObject': {}, 'id': 'bagel plain', 'src': '/static/foodstim60/bagel plain.jpg', 'key': 'i', 'origWidth': 410, 'origHeight': 410, 'width': 410, 'height': 410, 'widthPercent': 0.45, 'rescaleHeight': False, 'trialN': 106, 'loaded': True, 'loadedTime': 3863.10000000149, 'positionName': 'RIGHT', 'positionCoords': [665.6, 155], 'bid': 5.0600000000000005}]",218044.80000000075,1669841489116,lox,bagel plain,5.5600000000000005,5.0600000000000005,-0.5,bagel plain,1203.300000000745,1205,1205.199999999255,True,i,219756.20000000298,1711.4000000022352,1669841490827,1711,HRV,HRV_0291,2022-11-30 20:53:50
107,"[{'imgObject': {}, 'id': 'cheerios', 'src': '/static/foodstim60/cheerios.jpg', 'key': 'u', 'origWidth': 409, 'origHeight': 410, 'width': 409, 'height': 410, 'widthPercent': 0.45, 'rescaleHeight': False, 'trialN': 107, 'loaded': True, 'loadedTime': 3884.10000000149, 'positionName': 'LEFT', 'positionCoords': [205.4, 155], 'bid': 6.5600000000000005}, {'imgObject': {}, 'id': 'hotdog w must', 'src': '/static/foodstim60/hotdog w must.jpg', 'key': 'i', 'origWidth': 409, 'origHeight': 409, 'width': 409, 'height': 409, 'widthPercent': 0.45, 'rescaleHeight': False, 'trialN': 107, 'loaded': True, 'loadedTime': 3868, 'positionName': 'RIGHT', 'positionCoords': [665.6, 155.5], 'bid': 7.28}]",219756.30000000075,1669841490827,cheerios,hotdog w must,6.5600000000000005,7.28,0.7199999999999998,hotdog w must,1047.800000000745,1050,1049.4000000022352,True,i,221308.5,1552.199999999255,1669841492379,1552,HRV,HRV_0291,2022-11-30 20:53:50
108,"[{'imgObject': {}, 'id': 'raisin bran w milk', 'src': '/static/foodstim60/raisin bran w milk.jpg', 'key': 'u', 'origWidth': 411, 'origHeight': 411, 'width': 411, 'height': 411, 'widthPercent': 0.45, 'rescaleHeight': False, 'trialN': 108, 'loaded': True, 'loadedTime': 3821.2000000029802, 'positionName': 'LEFT', 'positionCoords': [203.4, 154.5], 'bid': 4.03}, {'imgObject': {}, 'id': 'banana', 'src': '/static/foodstim60/banana.jpg', 'key': 'i', 'origWidth': 410, 'origHeight': 410, 'width': 410, 'height': 410, 'widthPercent': 0.45, 'rescaleHeight': False, 'trialN': 108, 'loaded': True, 'loadedTime': 3883.60000000149, 'positionName': 'RIGHT', 'positionCoords': [665.6, 155], 'bid': 4.03}]",221308.80000000075,1669841492380,raisin bran w milk,banana,4.03,4.03,0.0,banana,1605.300000000745,1607,1607.5,True,i,223420.5,2111.699999999255,1669841494491,2111,HRV,HRV_0291,2022-11-30 20:53:50
